Created as New Dataset,Sample 770 By YargerLab Date Monday, July 07 2025
cm-1,A
4000.00,0.0117
3999.00,0.0117
3998.00,0.0117
3997.00,0.0118
3996.00,0.0118
3995.00,0.0118
3994.00,0.0117
3993.00,0.0117
3992.00,0.0117
3991.00,0.0117
3990.00,0.0117
3989.00,0.0117
3988.00,0.0117
3987.00,0.0117
3986.00,0.0117
3985.00,0.0117
3984.00,0.0117
3983.00,0.0117
3982.00,0.0117
3981.00,0.0117
3980.00,0.0116
3979.00,0.0116
3978.00,0.0116
3977.00,0.0116
3976.00,0.0116
3975.00,0.0116
3974.00,0.0117
3973.00,0.0117
3972.00,0.0116
3971.00,0.0116
3970.00,0.0116
3969.00,0.0116
3968.00,0.0116
3967.00,0.0116
3966.00,0.0116
3965.00,0.0116
3964.00,0.0116
3963.00,0.0117
3962.00,0.0116
3961.00,0.0116
3960.00,0.0116
3959.00,0.0116
3958.00,0.0116
3957.00,0.0116
3956.00,0.0116
3955.00,0.0116
3954.00,0.0116
3953.00,0.0116
3952.00,0.0116
3951.00,0.0116
3950.00,0.0116
3949.00,0.0116
3948.00,0.0116
3947.00,0.0116
3946.00,0.0116
3945.00,0.0116
3944.00,0.0116
3943.00,0.0116
3942.00,0.0115
3941.00,0.0115
3940.00,0.0115
3939.00,0.0115
3938.00,0.0115
3937.00,0.0115
3936.00,0.0115
3935.00,0.0115
3934.00,0.0115
3933.00,0.0115
3932.00,0.0116
3931.00,0.0116
3930.00,0.0116
3929.00,0.0116
3928.00,0.0115
3927.00,0.0115
3926.00,0.0115
3925.00,0.0114
3924.00,0.0114
3923.00,0.0114
3922.00,0.0114
3921.00,0.0114
3920.00,0.0114
3919.00,0.0114
3918.00,0.0114
3917.00,0.0114
3916.00,0.0114
3915.00,0.0114
3914.00,0.0114
3913.00,0.0114
3912.00,0.0114
3911.00,0.0114
3910.00,0.0114
3909.00,0.0114
3908.00,0.0114
3907.00,0.0114
3906.00,0.0114
3905.00,0.0114
3904.00,0.0115
3903.00,0.0116
3902.00,0.0116
3901.00,0.0116
3900.00,0.0117
3899.00,0.0116
3898.00,0.0116
3897.00,0.0116
3896.00,0.0115
3895.00,0.0115
3894.00,0.0115
3893.00,0.0115
3892.00,0.0115
3891.00,0.0114
3890.00,0.0114
3889.00,0.0115
3888.00,0.0115
3887.00,0.0115
3886.00,0.0115
3885.00,0.0115
3884.00,0.0115
3883.00,0.0114
3882.00,0.0114
3881.00,0.0113
3880.00,0.0113
3879.00,0.0113
3878.00,0.0113
3877.00,0.0113
3876.00,0.0114
3875.00,0.0114
3874.00,0.0113
3873.00,0.0113
3872.00,0.0114
3871.00,0.0114
3870.00,0.0114
3869.00,0.0113
3868.00,0.0113
3867.00,0.0113
3866.00,0.0113
3865.00,0.0114
3864.00,0.0113
3863.00,0.0113
3862.00,0.0113
3861.00,0.0113
3860.00,0.0112
3859.00,0.0112
3858.00,0.0112
3857.00,0.0112
3856.00,0.0113
3855.00,0.0114
3854.00,0.0114
3853.00,0.0114
3852.00,0.0114
3851.00,0.0114
3850.00,0.0114
3849.00,0.0113
3848.00,0.0112
3847.00,0.0112
3846.00,0.0112
3845.00,0.0112
3844.00,0.0112
3843.00,0.0112
3842.00,0.0113
3841.00,0.0113
3840.00,0.0113
3839.00,0.0114
3838.00,0.0114
3837.00,0.0114
3836.00,0.0114
3835.00,0.0113
3834.00,0.0113
3833.00,0.0113
3832.00,0.0112
3831.00,0.0111
3830.00,0.0111
3829.00,0.0110
3828.00,0.0110
3827.00,0.0110
3826.00,0.0111
3825.00,0.0111
3824.00,0.0111
3823.00,0.0112
3822.00,0.0112
3821.00,0.0113
3820.00,0.0113
3819.00,0.0113
3818.00,0.0113
3817.00,0.0112
3816.00,0.0111
3815.00,0.0110
3814.00,0.0110
3813.00,0.0110
3812.00,0.0110
3811.00,0.0110
3810.00,0.0110
3809.00,0.0110
3808.00,0.0110
3807.00,0.0110
3806.00,0.0110
3805.00,0.0111
3804.00,0.0111
3803.00,0.0112
3802.00,0.0112
3801.00,0.0111
3800.00,0.0111
3799.00,0.0111
3798.00,0.0110
3797.00,0.0110
3796.00,0.0109
3795.00,0.0109
3794.00,0.0109
3793.00,0.0109
3792.00,0.0109
3791.00,0.0109
3790.00,0.0109
3789.00,0.0108
3788.00,0.0108
3787.00,0.0108
3786.00,0.0109
3785.00,0.0109
3784.00,0.0109
3783.00,0.0109
3782.00,0.0109
3781.00,0.0109
3780.00,0.0109
3779.00,0.0109
3778.00,0.0109
3777.00,0.0109
3776.00,0.0109
3775.00,0.0109
3774.00,0.0109
3773.00,0.0109
3772.00,0.0109
3771.00,0.0109
3770.00,0.0109
3769.00,0.0110
3768.00,0.0110
3767.00,0.0110
3766.00,0.0110
3765.00,0.0110
3764.00,0.0109
3763.00,0.0109
3762.00,0.0109
3761.00,0.0109
3760.00,0.0109
3759.00,0.0109
3758.00,0.0109
3757.00,0.0109
3756.00,0.0109
3755.00,0.0109
3754.00,0.0109
3753.00,0.0109
3752.00,0.0109
3751.00,0.0109
3750.00,0.0109
3749.00,0.0110
3748.00,0.0110
3747.00,0.0110
3746.00,0.0110
3745.00,0.0110
3744.00,0.0110
3743.00,0.0109
3742.00,0.0109
3741.00,0.0109
3740.00,0.0109
3739.00,0.0108
3738.00,0.0108
3737.00,0.0108
3736.00,0.0108
3735.00,0.0108
3734.00,0.0108
3733.00,0.0108
3732.00,0.0107
3731.00,0.0107
3730.00,0.0107
3729.00,0.0107
3728.00,0.0107
3727.00,0.0107
3726.00,0.0107
3725.00,0.0106
3724.00,0.0106
3723.00,0.0107
3722.00,0.0107
3721.00,0.0106
3720.00,0.0106
3719.00,0.0105
3718.00,0.0105
3717.00,0.0104
3716.00,0.0104
3715.00,0.0104
3714.00,0.0105
3713.00,0.0106
3712.00,0.0106
3711.00,0.0106
3710.00,0.0106
3709.00,0.0106
3708.00,0.0106
3707.00,0.0105
3706.00,0.0105
3705.00,0.0104
3704.00,0.0104
3703.00,0.0104
3702.00,0.0104
3701.00,0.0104
3700.00,0.0103
3699.00,0.0103
3698.00,0.0103
3697.00,0.0103
3696.00,0.0103
3695.00,0.0103
3694.00,0.0104
3693.00,0.0104
3692.00,0.0104
3691.00,0.0104
3690.00,0.0104
3689.00,0.0104
3688.00,0.0103
3687.00,0.0103
3686.00,0.0103
3685.00,0.0102
3684.00,0.0102
3683.00,0.0101
3682.00,0.0101
3681.00,0.0101
3680.00,0.0100
3679.00,0.0100
3678.00,0.0100
3677.00,0.0100
3676.00,0.0101
3675.00,0.0101
3674.00,0.0102
3673.00,0.0102
3672.00,0.0102
3671.00,0.0101
3670.00,0.0101
3669.00,0.0100
3668.00,0.0101
3667.00,0.0101
3666.00,0.0101
3665.00,0.0100
3664.00,0.0100
3663.00,0.0099
3662.00,0.0099
3661.00,0.0099
3660.00,0.0100
3659.00,0.0100
3658.00,0.0101
3657.00,0.0101
3656.00,0.0101
3655.00,0.0102
3654.00,0.0103
3653.00,0.0104
3652.00,0.0105
3651.00,0.0105
3650.00,0.0106
3649.00,0.0106
3648.00,0.0106
3647.00,0.0107
3646.00,0.0107
3645.00,0.0107
3644.00,0.0107
3643.00,0.0107
3642.00,0.0108
3641.00,0.0109
3640.00,0.0109
3639.00,0.0109
3638.00,0.0110
3637.00,0.0110
3636.00,0.0111
3635.00,0.0112
3634.00,0.0114
3633.00,0.0115
3632.00,0.0116
3631.00,0.0118
3630.00,0.0119
3629.00,0.0120
3628.00,0.0121
3627.00,0.0122
3626.00,0.0122
3625.00,0.0122
3624.00,0.0122
3623.00,0.0122
3622.00,0.0122
3621.00,0.0123
3620.00,0.0123
3619.00,0.0123
3618.00,0.0124
3617.00,0.0125
3616.00,0.0126
3615.00,0.0127
3614.00,0.0128
3613.00,0.0129
3612.00,0.0130
3611.00,0.0131
3610.00,0.0131
3609.00,0.0132
3608.00,0.0133
3607.00,0.0133
3606.00,0.0134
3605.00,0.0134
3604.00,0.0134
3603.00,0.0134
3602.00,0.0134
3601.00,0.0134
3600.00,0.0134
3599.00,0.0135
3598.00,0.0136
3597.00,0.0136
3596.00,0.0137
3595.00,0.0138
3594.00,0.0139
3593.00,0.0140
3592.00,0.0141
3591.00,0.0142
3590.00,0.0142
3589.00,0.0143
3588.00,0.0143
3587.00,0.0144
3586.00,0.0145
3585.00,0.0146
3584.00,0.0146
3583.00,0.0146
3582.00,0.0145
3581.00,0.0145
3580.00,0.0146
3579.00,0.0147
3578.00,0.0148
3577.00,0.0149
3576.00,0.0149
3575.00,0.0150
3574.00,0.0151
3573.00,0.0152
3572.00,0.0153
3571.00,0.0154
3570.00,0.0156
3569.00,0.0157
3568.00,0.0158
3567.00,0.0159
3566.00,0.0160
3565.00,0.0161
3564.00,0.0161
3563.00,0.0162
3562.00,0.0162
3561.00,0.0162
3560.00,0.0162
3559.00,0.0163
3558.00,0.0164
3557.00,0.0165
3556.00,0.0166
3555.00,0.0168
3554.00,0.0169
3553.00,0.0170
3552.00,0.0171
3551.00,0.0172
3550.00,0.0173
3549.00,0.0173
3548.00,0.0174
3547.00,0.0174
3546.00,0.0175
3545.00,0.0175
3544.00,0.0176
3543.00,0.0177
3542.00,0.0177
3541.00,0.0178
3540.00,0.0178
3539.00,0.0179
3538.00,0.0179
3537.00,0.0180
3536.00,0.0180
3535.00,0.0181
3534.00,0.0182
3533.00,0.0183
3532.00,0.0184
3531.00,0.0185
3530.00,0.0186
3529.00,0.0186
3528.00,0.0186
3527.00,0.0187
3526.00,0.0187
3525.00,0.0188
3524.00,0.0189
3523.00,0.0190
3522.00,0.0191
3521.00,0.0192
3520.00,0.0193
3519.00,0.0194
3518.00,0.0195
3517.00,0.0195
3516.00,0.0196
3515.00,0.0197
3514.00,0.0198
3513.00,0.0198
3512.00,0.0198
3511.00,0.0199
3510.00,0.0199
3509.00,0.0199
3508.00,0.0200
3507.00,0.0200
3506.00,0.0201
3505.00,0.0201
3504.00,0.0202
3503.00,0.0203
3502.00,0.0203
3501.00,0.0204
3500.00,0.0204
3499.00,0.0205
3498.00,0.0205
3497.00,0.0206
3496.00,0.0206
3495.00,0.0207
3494.00,0.0207
3493.00,0.0207
3492.00,0.0207
3491.00,0.0208
3490.00,0.0209
3489.00,0.0210
3488.00,0.0211
3487.00,0.0212
3486.00,0.0212
3485.00,0.0213
3484.00,0.0213
3483.00,0.0213
3482.00,0.0214
3481.00,0.0214
3480.00,0.0214
3479.00,0.0215
3478.00,0.0215
3477.00,0.0216
3476.00,0.0216
3475.00,0.0217
3474.00,0.0217
3473.00,0.0218
3472.00,0.0218
3471.00,0.0219
3470.00,0.0219
3469.00,0.0220
3468.00,0.0221
3467.00,0.0221
3466.00,0.0221
3465.00,0.0222
3464.00,0.0222
3463.00,0.0223
3462.00,0.0223
3461.00,0.0224
3460.00,0.0225
3459.00,0.0225
3458.00,0.0226
3457.00,0.0226
3456.00,0.0227
3455.00,0.0227
3454.00,0.0227
3453.00,0.0227
3452.00,0.0228
3451.00,0.0229
3450.00,0.0229
3449.00,0.0230
3448.00,0.0230
3447.00,0.0231
3446.00,0.0231
3445.00,0.0232
3444.00,0.0232
3443.00,0.0233
3442.00,0.0233
3441.00,0.0234
3440.00,0.0235
3439.00,0.0236
3438.00,0.0236
3437.00,0.0237
3436.00,0.0237
3435.00,0.0237
3434.00,0.0238
3433.00,0.0238
3432.00,0.0239
3431.00,0.0240
3430.00,0.0241
3429.00,0.0241
3428.00,0.0241
3427.00,0.0242
3426.00,0.0243
3425.00,0.0244
3424.00,0.0245
3423.00,0.0247
3422.00,0.0248
3421.00,0.0248
3420.00,0.0249
3419.00,0.0249
3418.00,0.0250
3417.00,0.0251
3416.00,0.0252
3415.00,0.0253
3414.00,0.0254
3413.00,0.0255
3412.00,0.0255
3411.00,0.0256
3410.00,0.0256
3409.00,0.0257
3408.00,0.0258
3407.00,0.0260
3406.00,0.0261
3405.00,0.0262
3404.00,0.0263
3403.00,0.0264
3402.00,0.0265
3401.00,0.0265
3400.00,0.0266
3399.00,0.0267
3398.00,0.0268
3397.00,0.0269
3396.00,0.0270
3395.00,0.0271
3394.00,0.0272
3393.00,0.0273
3392.00,0.0273
3391.00,0.0274
3390.00,0.0275
3389.00,0.0276
3388.00,0.0278
3387.00,0.0279
3386.00,0.0280
3385.00,0.0280
3384.00,0.0281
3383.00,0.0282
3382.00,0.0283
3381.00,0.0284
3380.00,0.0285
3379.00,0.0287
3378.00,0.0288
3377.00,0.0289
3376.00,0.0290
3375.00,0.0291
3374.00,0.0292
3373.00,0.0292
3372.00,0.0294
3371.00,0.0295
3370.00,0.0296
3369.00,0.0298
3368.00,0.0299
3367.00,0.0300
3366.00,0.0302
3365.00,0.0303
3364.00,0.0305
3363.00,0.0307
3362.00,0.0309
3361.00,0.0310
3360.00,0.0311
3359.00,0.0313
3358.00,0.0315
3357.00,0.0317
3356.00,0.0319
3355.00,0.0321
3354.00,0.0322
3353.00,0.0324
3352.00,0.0326
3351.00,0.0328
3350.00,0.0331
3349.00,0.0333
3348.00,0.0336
3347.00,0.0338
3346.00,0.0341
3345.00,0.0343
3344.00,0.0346
3343.00,0.0348
3342.00,0.0350
3341.00,0.0353
3340.00,0.0355
3339.00,0.0357
3338.00,0.0360
3337.00,0.0363
3336.00,0.0367
3335.00,0.0370
3334.00,0.0374
3333.00,0.0378
3332.00,0.0382
3331.00,0.0385
3330.00,0.0388
3329.00,0.0391
3328.00,0.0394
3327.00,0.0397
3326.00,0.0401
3325.00,0.0405
3324.00,0.0409
3323.00,0.0413
3322.00,0.0417
3321.00,0.0422
3320.00,0.0426
3319.00,0.0430
3318.00,0.0434
3317.00,0.0439
3316.00,0.0443
3315.00,0.0448
3314.00,0.0452
3313.00,0.0456
3312.00,0.0461
3311.00,0.0465
3310.00,0.0469
3309.00,0.0474
3308.00,0.0478
3307.00,0.0483
3306.00,0.0488
3305.00,0.0493
3304.00,0.0498
3303.00,0.0503
3302.00,0.0508
3301.00,0.0512
3300.00,0.0516
3299.00,0.0520
3298.00,0.0524
3297.00,0.0528
3296.00,0.0532
3295.00,0.0536
3294.00,0.0540
3293.00,0.0543
3292.00,0.0546
3291.00,0.0549
3290.00,0.0551
3289.00,0.0554
3288.00,0.0556
3287.00,0.0558
3286.00,0.0559
3285.00,0.0560
3284.00,0.0561
3283.00,0.0561
3282.00,0.0560
3281.00,0.0560
3280.00,0.0559
3279.00,0.0557
3278.00,0.0555
3277.00,0.0552
3276.00,0.0549
3275.00,0.0546
3274.00,0.0543
3273.00,0.0539
3272.00,0.0535
3271.00,0.0532
3270.00,0.0529
3269.00,0.0526
3268.00,0.0523
3267.00,0.0519
3266.00,0.0515
3265.00,0.0511
3264.00,0.0506
3263.00,0.0502
3262.00,0.0498
3261.00,0.0494
3260.00,0.0490
3259.00,0.0486
3258.00,0.0481
3257.00,0.0476
3256.00,0.0471
3255.00,0.0467
3254.00,0.0464
3253.00,0.0461
3252.00,0.0458
3251.00,0.0455
3250.00,0.0451
3249.00,0.0447
3248.00,0.0443
3247.00,0.0440
3246.00,0.0437
3245.00,0.0434
3244.00,0.0431
3243.00,0.0429
3242.00,0.0426
3241.00,0.0423
3240.00,0.0420
3239.00,0.0417
3238.00,0.0414
3237.00,0.0411
3236.00,0.0407
3235.00,0.0404
3234.00,0.0401
3233.00,0.0399
3232.00,0.0398
3231.00,0.0397
3230.00,0.0396
3229.00,0.0394
3228.00,0.0393
3227.00,0.0390
3226.00,0.0388
3225.00,0.0385
3224.00,0.0383
3223.00,0.0380
3222.00,0.0378
3221.00,0.0377
3220.00,0.0375
3219.00,0.0373
3218.00,0.0371
3217.00,0.0369
3216.00,0.0367
3215.00,0.0365
3214.00,0.0363
3213.00,0.0361
3212.00,0.0359
3211.00,0.0358
3210.00,0.0356
3209.00,0.0355
3208.00,0.0353
3207.00,0.0351
3206.00,0.0349
3205.00,0.0347
3204.00,0.0345
3203.00,0.0343
3202.00,0.0341
3201.00,0.0339
3200.00,0.0337
3199.00,0.0335
3198.00,0.0333
3197.00,0.0332
3196.00,0.0330
3195.00,0.0328
3194.00,0.0326
3193.00,0.0324
3192.00,0.0322
3191.00,0.0320
3190.00,0.0318
3189.00,0.0317
3188.00,0.0315
3187.00,0.0313
3186.00,0.0312
3185.00,0.0310
3184.00,0.0308
3183.00,0.0306
3182.00,0.0305
3181.00,0.0303
3180.00,0.0301
3179.00,0.0299
3178.00,0.0297
3177.00,0.0296
3176.00,0.0294
3175.00,0.0293
3174.00,0.0292
3173.00,0.0290
3172.00,0.0288
3171.00,0.0287
3170.00,0.0285
3169.00,0.0283
3168.00,0.0282
3167.00,0.0280
3166.00,0.0279
3165.00,0.0277
3164.00,0.0276
3163.00,0.0274
3162.00,0.0273
3161.00,0.0271
3160.00,0.0269
3159.00,0.0268
3158.00,0.0267
3157.00,0.0265
3156.00,0.0264
3155.00,0.0263
3154.00,0.0262
3153.00,0.0261
3152.00,0.0261
3151.00,0.0260
3150.00,0.0259
3149.00,0.0258
3148.00,0.0256
3147.00,0.0255
3146.00,0.0253
3145.00,0.0252
3144.00,0.0252
3143.00,0.0251
3142.00,0.0250
3141.00,0.0250
3140.00,0.0249
3139.00,0.0248
3138.00,0.0247
3137.00,0.0247
3136.00,0.0247
3135.00,0.0246
3134.00,0.0246
3133.00,0.0245
3132.00,0.0245
3131.00,0.0244
3130.00,0.0244
3129.00,0.0243
3128.00,0.0242
3127.00,0.0242
3126.00,0.0241
3125.00,0.0241
3124.00,0.0241
3123.00,0.0240
3122.00,0.0240
3121.00,0.0239
3120.00,0.0238
3119.00,0.0238
3118.00,0.0238
3117.00,0.0238
3116.00,0.0239
3115.00,0.0240
3114.00,0.0241
3113.00,0.0241
3112.00,0.0241
3111.00,0.0241
3110.00,0.0241
3109.00,0.0241
3108.00,0.0242
3107.00,0.0242
3106.00,0.0243
3105.00,0.0244
3104.00,0.0245
3103.00,0.0245
3102.00,0.0245
3101.00,0.0245
3100.00,0.0245
3099.00,0.0246
3098.00,0.0247
3097.00,0.0248
3096.00,0.0248
3095.00,0.0249
3094.00,0.0250
3093.00,0.0250
3092.00,0.0251
3091.00,0.0251
3090.00,0.0251
3089.00,0.0251
3088.00,0.0252
3087.00,0.0252
3086.00,0.0253
3085.00,0.0253
3084.00,0.0253
3083.00,0.0253
3082.00,0.0253
3081.00,0.0253
3080.00,0.0253
3079.00,0.0253
3078.00,0.0254
3077.00,0.0255
3076.00,0.0256
3075.00,0.0257
3074.00,0.0258
3073.00,0.0258
3072.00,0.0258
3071.00,0.0258
3070.00,0.0257
3069.00,0.0256
3068.00,0.0255
3067.00,0.0255
3066.00,0.0255
3065.00,0.0255
3064.00,0.0255
3063.00,0.0255
3062.00,0.0254
3061.00,0.0254
3060.00,0.0253
3059.00,0.0252
3058.00,0.0251
3057.00,0.0250
3056.00,0.0248
3055.00,0.0247
3054.00,0.0246
3053.00,0.0245
3052.00,0.0244
3051.00,0.0243
3050.00,0.0242
3049.00,0.0241
3048.00,0.0240
3047.00,0.0239
3046.00,0.0237
3045.00,0.0236
3044.00,0.0234
3043.00,0.0232
3042.00,0.0231
3041.00,0.0231
3040.00,0.0230
3039.00,0.0230
3038.00,0.0229
3037.00,0.0227
3036.00,0.0225
3035.00,0.0224
3034.00,0.0223
3033.00,0.0223
3032.00,0.0223
3031.00,0.0222
3030.00,0.0221
3029.00,0.0219
3028.00,0.0218
3027.00,0.0217
3026.00,0.0216
3025.00,0.0216
3024.00,0.0215
3023.00,0.0214
3022.00,0.0213
3021.00,0.0211
3020.00,0.0210
3019.00,0.0208
3018.00,0.0207
3017.00,0.0205
3016.00,0.0204
3015.00,0.0202
3014.00,0.0200
3013.00,0.0199
3012.00,0.0197
3011.00,0.0196
3010.00,0.0194
3009.00,0.0193
3008.00,0.0191
3007.00,0.0190
3006.00,0.0188
3005.00,0.0186
3004.00,0.0184
3003.00,0.0182
3002.00,0.0180
3001.00,0.0177
3000.00,0.0175
2999.00,0.0173
2998.00,0.0172
2997.00,0.0171
2996.00,0.0170
2995.00,0.0169
2994.00,0.0169
2993.00,0.0169
2992.00,0.0168
2991.00,0.0169
2990.00,0.0169
2989.00,0.0169
2988.00,0.0169
2987.00,0.0169
2986.00,0.0166
2985.00,0.0162
2984.00,0.0156
2983.00,0.0150
2982.00,0.0146
2981.00,0.0145
2980.00,0.0147
2979.00,0.0151
2978.00,0.0155
2977.00,0.0160
2976.00,0.0163
2975.00,0.0164
2974.00,0.0165
2973.00,0.0165
2972.00,0.0165
2971.00,0.0166
2970.00,0.0168
2969.00,0.0171
2968.00,0.0174
2967.00,0.0177
2966.00,0.0179
2965.00,0.0180
2964.00,0.0182
2963.00,0.0183
2962.00,0.0184
2961.00,0.0185
2960.00,0.0186
2959.00,0.0187
2958.00,0.0188
2957.00,0.0188
2956.00,0.0188
2955.00,0.0189
2954.00,0.0189
2953.00,0.0190
2952.00,0.0191
2951.00,0.0193
2950.00,0.0194
2949.00,0.0196
2948.00,0.0197
2947.00,0.0199
2946.00,0.0201
2945.00,0.0203
2944.00,0.0206
2943.00,0.0209
2942.00,0.0211
2941.00,0.0214
2940.00,0.0216
2939.00,0.0218
2938.00,0.0220
2937.00,0.0222
2936.00,0.0224
2935.00,0.0226
2934.00,0.0227
2933.00,0.0228
2932.00,0.0228
2931.00,0.0229
2930.00,0.0231
2929.00,0.0232
2928.00,0.0233
2927.00,0.0234
2926.00,0.0235
2925.00,0.0236
2924.00,0.0237
2923.00,0.0237
2922.00,0.0238
2921.00,0.0238
2920.00,0.0237
2919.00,0.0236
2918.00,0.0234
2917.00,0.0232
2916.00,0.0230
2915.00,0.0226
2914.00,0.0222
2913.00,0.0218
2912.00,0.0214
2911.00,0.0210
2910.00,0.0207
2909.00,0.0205
2908.00,0.0203
2907.00,0.0201
2906.00,0.0199
2905.00,0.0197
2904.00,0.0195
2903.00,0.0193
2902.00,0.0191
2901.00,0.0190
2900.00,0.0188
2899.00,0.0187
2898.00,0.0186
2897.00,0.0185
2896.00,0.0184
2895.00,0.0182
2894.00,0.0182
2893.00,0.0181
2892.00,0.0179
2891.00,0.0178
2890.00,0.0177
2889.00,0.0176
2888.00,0.0175
2887.00,0.0175
2886.00,0.0175
2885.00,0.0175
2884.00,0.0176
2883.00,0.0176
2882.00,0.0177
2881.00,0.0179
2880.00,0.0180
2879.00,0.0181
2878.00,0.0182
2877.00,0.0183
2876.00,0.0184
2875.00,0.0184
2874.00,0.0184
2873.00,0.0184
2872.00,0.0184
2871.00,0.0183
2870.00,0.0183
2869.00,0.0182
2868.00,0.0182
2867.00,0.0182
2866.00,0.0181
2865.00,0.0181
2864.00,0.0181
2863.00,0.0181
2862.00,0.0181
2861.00,0.0182
2860.00,0.0183
2859.00,0.0184
2858.00,0.0185
2857.00,0.0186
2856.00,0.0188
2855.00,0.0189
2854.00,0.0191
2853.00,0.0193
2852.00,0.0194
2851.00,0.0196
2850.00,0.0196
2849.00,0.0195
2848.00,0.0192
2847.00,0.0189
2846.00,0.0186
2845.00,0.0184
2844.00,0.0181
2843.00,0.0179
2842.00,0.0178
2841.00,0.0176
2840.00,0.0174
2839.00,0.0173
2838.00,0.0172
2837.00,0.0172
2836.00,0.0171
2835.00,0.0171
2834.00,0.0170
2833.00,0.0169
2832.00,0.0169
2831.00,0.0168
2830.00,0.0168
2829.00,0.0168
2828.00,0.0168
2827.00,0.0168
2826.00,0.0167
2825.00,0.0167
2824.00,0.0167
2823.00,0.0167
2822.00,0.0166
2821.00,0.0166
2820.00,0.0166
2819.00,0.0165
2818.00,0.0165
2817.00,0.0165
2816.00,0.0165
2815.00,0.0165
2814.00,0.0164
2813.00,0.0164
2812.00,0.0164
2811.00,0.0163
2810.00,0.0163
2809.00,0.0163
2808.00,0.0163
2807.00,0.0163
2806.00,0.0163
2805.00,0.0162
2804.00,0.0162
2803.00,0.0162
2802.00,0.0161
2801.00,0.0161
2800.00,0.0161
2799.00,0.0160
2798.00,0.0160
2797.00,0.0160
2796.00,0.0159
2795.00,0.0159
2794.00,0.0159
2793.00,0.0159
2792.00,0.0158
2791.00,0.0158
2790.00,0.0158
2789.00,0.0158
2788.00,0.0158
2787.00,0.0158
2786.00,0.0158
2785.00,0.0157
2784.00,0.0157
2783.00,0.0156
2782.00,0.0156
2781.00,0.0156
2780.00,0.0156
2779.00,0.0156
2778.00,0.0156
2777.00,0.0155
2776.00,0.0155
2775.00,0.0155
2774.00,0.0155
2773.00,0.0155
2772.00,0.0155
2771.00,0.0155
2770.00,0.0154
2769.00,0.0154
2768.00,0.0154
2767.00,0.0153
2766.00,0.0153
2765.00,0.0152
2764.00,0.0152
2763.00,0.0152
2762.00,0.0152
2761.00,0.0152
2760.00,0.0152
2759.00,0.0151
2758.00,0.0151
2757.00,0.0151
2756.00,0.0150
2755.00,0.0150
2754.00,0.0150
2753.00,0.0151
2752.00,0.0151
2751.00,0.0150
2750.00,0.0150
2749.00,0.0150
2748.00,0.0149
2747.00,0.0149
2746.00,0.0149
2745.00,0.0148
2744.00,0.0148
2743.00,0.0148
2742.00,0.0148
2741.00,0.0148
2740.00,0.0147
2739.00,0.0147
2738.00,0.0147
2737.00,0.0147
2736.00,0.0147
2735.00,0.0147
2734.00,0.0147
2733.00,0.0147
2732.00,0.0146
2731.00,0.0146
2730.00,0.0145
2729.00,0.0145
2728.00,0.0145
2727.00,0.0144
2726.00,0.0144
2725.00,0.0144
2724.00,0.0144
2723.00,0.0144
2722.00,0.0143
2721.00,0.0143
2720.00,0.0142
2719.00,0.0142
2718.00,0.0142
2717.00,0.0142
2716.00,0.0142
2715.00,0.0142
2714.00,0.0142
2713.00,0.0142
2712.00,0.0142
2711.00,0.0141
2710.00,0.0141
2709.00,0.0141
2708.00,0.0140
2707.00,0.0140
2706.00,0.0140
2705.00,0.0140
2704.00,0.0140
2703.00,0.0140
2702.00,0.0140
2701.00,0.0140
2700.00,0.0139
2699.00,0.0139
2698.00,0.0139
2697.00,0.0139
2696.00,0.0139
2695.00,0.0139
2694.00,0.0139
2693.00,0.0139
2692.00,0.0138
2691.00,0.0138
2690.00,0.0138
2689.00,0.0138
2688.00,0.0139
2687.00,0.0139
2686.00,0.0138
2685.00,0.0138
2684.00,0.0138
2683.00,0.0137
2682.00,0.0137
2681.00,0.0136
2680.00,0.0136
2679.00,0.0136
2678.00,0.0136
2677.00,0.0135
2676.00,0.0136
2675.00,0.0136
2674.00,0.0135
2673.00,0.0135
2672.00,0.0135
2671.00,0.0135
2670.00,0.0135
2669.00,0.0135
2668.00,0.0135
2667.00,0.0135
2666.00,0.0136
2665.00,0.0136
2664.00,0.0137
2663.00,0.0137
2662.00,0.0137
2661.00,0.0137
2660.00,0.0137
2659.00,0.0137
2658.00,0.0138
2657.00,0.0138
2656.00,0.0138
2655.00,0.0138
2654.00,0.0138
2653.00,0.0138
2652.00,0.0138
2651.00,0.0138
2650.00,0.0138
2649.00,0.0138
2648.00,0.0138
2647.00,0.0138
2646.00,0.0137
2645.00,0.0137
2644.00,0.0137
2643.00,0.0137
2642.00,0.0136
2641.00,0.0136
2640.00,0.0136
2639.00,0.0136
2638.00,0.0136
2637.00,0.0136
2636.00,0.0136
2635.00,0.0136
2634.00,0.0136
2633.00,0.0136
2632.00,0.0136
2631.00,0.0136
2630.00,0.0136
2629.00,0.0136
2628.00,0.0136
2627.00,0.0136
2626.00,0.0136
2625.00,0.0135
2624.00,0.0135
2623.00,0.0135
2622.00,0.0135
2621.00,0.0135
2620.00,0.0134
2619.00,0.0134
2618.00,0.0133
2617.00,0.0133
2616.00,0.0133
2615.00,0.0133
2614.00,0.0133
2613.00,0.0133
2612.00,0.0133
2611.00,0.0133
2610.00,0.0132
2609.00,0.0132
2608.00,0.0131
2607.00,0.0131
2606.00,0.0131
2605.00,0.0131
2604.00,0.0132
2603.00,0.0132
2602.00,0.0131
2601.00,0.0131
2600.00,0.0130
2599.00,0.0130
2598.00,0.0130
2597.00,0.0130
2596.00,0.0130
2595.00,0.0130
2594.00,0.0130
2593.00,0.0130
2592.00,0.0130
2591.00,0.0130
2590.00,0.0129
2589.00,0.0129
2588.00,0.0129
2587.00,0.0129
2586.00,0.0129
2585.00,0.0129
2584.00,0.0129
2583.00,0.0129
2582.00,0.0128
2581.00,0.0128
2580.00,0.0127
2579.00,0.0127
2578.00,0.0127
2577.00,0.0127
2576.00,0.0127
2575.00,0.0127
2574.00,0.0127
2573.00,0.0127
2572.00,0.0127
2571.00,0.0126
2570.00,0.0126
2569.00,0.0126
2568.00,0.0126
2567.00,0.0125
2566.00,0.0125
2565.00,0.0125
2564.00,0.0125
2563.00,0.0126
2562.00,0.0127
2561.00,0.0129
2560.00,0.0129
2559.00,0.0127
2558.00,0.0126
2557.00,0.0124
2556.00,0.0123
2555.00,0.0123
2554.00,0.0123
2553.00,0.0123
2552.00,0.0123
2551.00,0.0123
2550.00,0.0122
2549.00,0.0122
2548.00,0.0123
2547.00,0.0123
2546.00,0.0122
2545.00,0.0122
2544.00,0.0121
2543.00,0.0121
2542.00,0.0121
2541.00,0.0121
2540.00,0.0121
2539.00,0.0121
2538.00,0.0121
2537.00,0.0120
2536.00,0.0120
2535.00,0.0120
2534.00,0.0120
2533.00,0.0121
2532.00,0.0121
2531.00,0.0121
2530.00,0.0121
2529.00,0.0120
2528.00,0.0120
2527.00,0.0119
2526.00,0.0119
2525.00,0.0119
2524.00,0.0120
2523.00,0.0120
2522.00,0.0120
2521.00,0.0119
2520.00,0.0118
2519.00,0.0117
2518.00,0.0117
2517.00,0.0118
2516.00,0.0118
2515.00,0.0119
2514.00,0.0119
2513.00,0.0118
2512.00,0.0118
2511.00,0.0117
2510.00,0.0117
2509.00,0.0116
2508.00,0.0117
2507.00,0.0117
2506.00,0.0118
2505.00,0.0118
2504.00,0.0119
2503.00,0.0118
2502.00,0.0118
2501.00,0.0117
2500.00,0.0116
2499.00,0.0116
2498.00,0.0117
2497.00,0.0118
2496.00,0.0119
2495.00,0.0119
2494.00,0.0118
2493.00,0.0117
2492.00,0.0117
2491.00,0.0117
2490.00,0.0117
2489.00,0.0117
2488.00,0.0116
2487.00,0.0116
2486.00,0.0116
2485.00,0.0116
2484.00,0.0117
2483.00,0.0117
2482.00,0.0117
2481.00,0.0117
2480.00,0.0117
2479.00,0.0117
2478.00,0.0117
2477.00,0.0117
2476.00,0.0117
2475.00,0.0116
2474.00,0.0117
2473.00,0.0117
2472.00,0.0117
2471.00,0.0118
2470.00,0.0118
2469.00,0.0118
2468.00,0.0117
2467.00,0.0117
2466.00,0.0116
2465.00,0.0116
2464.00,0.0116
2463.00,0.0116
2462.00,0.0116
2461.00,0.0116
2460.00,0.0116
2459.00,0.0116
2458.00,0.0116
2457.00,0.0116
2456.00,0.0116
2455.00,0.0116
2454.00,0.0115
2453.00,0.0116
2452.00,0.0116
2451.00,0.0115
2450.00,0.0115
2449.00,0.0114
2448.00,0.0114
2447.00,0.0114
2446.00,0.0114
2445.00,0.0114
2444.00,0.0114
2443.00,0.0114
2442.00,0.0113
2441.00,0.0112
2440.00,0.0112
2439.00,0.0111
2438.00,0.0111
2437.00,0.0111
2436.00,0.0111
2435.00,0.0111
2434.00,0.0111
2433.00,0.0110
2432.00,0.0110
2431.00,0.0110
2430.00,0.0110
2429.00,0.0110
2428.00,0.0110
2427.00,0.0110
2426.00,0.0110
2425.00,0.0111
2424.00,0.0111
2423.00,0.0110
2422.00,0.0110
2421.00,0.0109
2420.00,0.0109
2419.00,0.0110
2418.00,0.0110
2417.00,0.0111
2416.00,0.0110
2415.00,0.0110
2414.00,0.0109
2413.00,0.0109
2412.00,0.0109
2411.00,0.0109
2410.00,0.0108
2409.00,0.0108
2408.00,0.0108
2407.00,0.0108
2406.00,0.0108
2405.00,0.0108
2404.00,0.0108
2403.00,0.0107
2402.00,0.0107
2401.00,0.0106
2400.00,0.0106
2399.00,0.0106
2398.00,0.0106
2397.00,0.0107
2396.00,0.0107
2395.00,0.0107
2394.00,0.0107
2393.00,0.0107
2392.00,0.0107
2391.00,0.0107
2390.00,0.0107
2389.00,0.0107
2388.00,0.0106
2387.00,0.0106
2386.00,0.0105
2385.00,0.0104
2384.00,0.0103
2383.00,0.0103
2382.00,0.0102
2381.00,0.0102
2380.00,0.0102
2379.00,0.0101
2378.00,0.0101
2377.00,0.0100
2376.00,0.0100
2375.00,0.0101
2374.00,0.0101
2373.00,0.0101
2372.00,0.0101
2371.00,0.0100
2370.00,0.0100
2369.00,0.0100
2368.00,0.0100
2367.00,0.0100
2366.00,0.0100
2365.00,0.0100
2364.00,0.0100
2363.00,0.0100
2362.00,0.0100
2361.00,0.0100
2360.00,0.0100
2359.00,0.0100
2358.00,0.0100
2357.00,0.0100
2356.00,0.0100
2355.00,0.0100
2354.00,0.0100
2353.00,0.0100
2352.00,0.0100
2351.00,0.0100
2350.00,0.0100
2349.00,0.0100
2348.00,0.0101
2347.00,0.0101
2346.00,0.0102
2345.00,0.0101
2344.00,0.0101
2343.00,0.0101
2342.00,0.0102
2341.00,0.0103
2340.00,0.0103
2339.00,0.0103
2338.00,0.0103
2337.00,0.0103
2336.00,0.0103
2335.00,0.0104
2334.00,0.0104
2333.00,0.0104
2332.00,0.0104
2331.00,0.0103
2330.00,0.0103
2329.00,0.0104
2328.00,0.0106
2327.00,0.0110
2326.00,0.0114
2325.00,0.0116
2324.00,0.0115
2323.00,0.0113
2322.00,0.0111
2321.00,0.0109
2320.00,0.0108
2319.00,0.0107
2318.00,0.0108
2317.00,0.0108
2316.00,0.0108
2315.00,0.0108
2314.00,0.0107
2313.00,0.0107
2312.00,0.0106
2311.00,0.0106
2310.00,0.0106
2309.00,0.0106
2308.00,0.0106
2307.00,0.0106
2306.00,0.0106
2305.00,0.0107
2304.00,0.0107
2303.00,0.0107
2302.00,0.0107
2301.00,0.0108
2300.00,0.0108
2299.00,0.0108
2298.00,0.0108
2297.00,0.0108
2296.00,0.0108
2295.00,0.0108
2294.00,0.0108
2293.00,0.0109
2292.00,0.0111
2291.00,0.0112
2290.00,0.0114
2289.00,0.0115
2288.00,0.0115
2287.00,0.0115
2286.00,0.0115
2285.00,0.0115
2284.00,0.0115
2283.00,0.0114
2282.00,0.0114
2281.00,0.0114
2280.00,0.0113
2279.00,0.0113
2278.00,0.0112
2277.00,0.0111
2276.00,0.0110
2275.00,0.0108
2274.00,0.0107
2273.00,0.0106
2272.00,0.0107
2271.00,0.0108
2270.00,0.0108
2269.00,0.0108
2268.00,0.0107
2267.00,0.0106
2266.00,0.0105
2265.00,0.0104
2264.00,0.0104
2263.00,0.0104
2262.00,0.0104
2261.00,0.0105
2260.00,0.0105
2259.00,0.0106
2258.00,0.0106
2257.00,0.0105
2256.00,0.0105
2255.00,0.0104
2254.00,0.0103
2253.00,0.0102
2252.00,0.0102
2251.00,0.0102
2250.00,0.0102
2249.00,0.0103
2248.00,0.0104
2247.00,0.0104
2246.00,0.0104
2245.00,0.0104
2244.00,0.0105
2243.00,0.0105
2242.00,0.0105
2241.00,0.0104
2240.00,0.0103
2239.00,0.0102
2238.00,0.0101
2237.00,0.0101
2236.00,0.0101
2235.00,0.0101
2234.00,0.0101
2233.00,0.0101
2232.00,0.0102
2231.00,0.0102
2230.00,0.0102
2229.00,0.0102
2228.00,0.0102
2227.00,0.0103
2226.00,0.0104
2225.00,0.0105
2224.00,0.0104
2223.00,0.0102
2222.00,0.0100
2221.00,0.0099
2220.00,0.0100
2219.00,0.0101
2218.00,0.0102
2217.00,0.0103
2216.00,0.0105
2215.00,0.0106
2214.00,0.0106
2213.00,0.0104
2212.00,0.0101
2211.00,0.0100
2210.00,0.0100
2209.00,0.0102
2208.00,0.0103
2207.00,0.0103
2206.00,0.0102
2205.00,0.0100
2204.00,0.0099
2203.00,0.0100
2202.00,0.0101
2201.00,0.0101
2200.00,0.0100
2199.00,0.0100
2198.00,0.0100
2197.00,0.0101
2196.00,0.0102
2195.00,0.0102
2194.00,0.0101
2193.00,0.0101
2192.00,0.0103
2191.00,0.0106
2190.00,0.0108
2189.00,0.0109
2188.00,0.0109
2187.00,0.0108
2186.00,0.0106
2185.00,0.0104
2184.00,0.0101
2183.00,0.0098
2182.00,0.0097
2181.00,0.0099
2180.00,0.0102
2179.00,0.0104
2178.00,0.0103
2177.00,0.0100
2176.00,0.0097
2175.00,0.0095
2174.00,0.0095
2173.00,0.0097
2172.00,0.0100
2171.00,0.0102
2170.00,0.0102
2169.00,0.0100
2168.00,0.0099
2167.00,0.0100
2166.00,0.0103
2165.00,0.0105
2164.00,0.0107
2163.00,0.0105
2162.00,0.0100
2161.00,0.0090
2160.00,0.0078
2159.00,0.0067
2158.00,0.0062
2157.00,0.0061
2156.00,0.0064
2155.00,0.0067
2154.00,0.0069
2153.00,0.0071
2152.00,0.0073
2151.00,0.0074
2150.00,0.0075
2149.00,0.0076
2148.00,0.0077
2147.00,0.0078
2146.00,0.0078
2145.00,0.0078
2144.00,0.0078
2143.00,0.0077
2142.00,0.0076
2141.00,0.0077
2140.00,0.0078
2139.00,0.0077
2138.00,0.0076
2137.00,0.0074
2136.00,0.0073
2135.00,0.0073
2134.00,0.0074
2133.00,0.0075
2132.00,0.0076
2131.00,0.0077
2130.00,0.0079
2129.00,0.0080
2128.00,0.0082
2127.00,0.0084
2126.00,0.0085
2125.00,0.0087
2124.00,0.0088
2123.00,0.0089
2122.00,0.0089
2121.00,0.0089
2120.00,0.0089
2119.00,0.0090
2118.00,0.0091
2117.00,0.0093
2116.00,0.0095
2115.00,0.0096
2114.00,0.0096
2113.00,0.0096
2112.00,0.0095
2111.00,0.0094
2110.00,0.0093
2109.00,0.0093
2108.00,0.0094
2107.00,0.0096
2106.00,0.0097
2105.00,0.0097
2104.00,0.0096
2103.00,0.0094
2102.00,0.0092
2101.00,0.0092
2100.00,0.0092
2099.00,0.0092
2098.00,0.0092
2097.00,0.0091
2096.00,0.0091
2095.00,0.0091
2094.00,0.0091
2093.00,0.0092
2092.00,0.0092
2091.00,0.0092
2090.00,0.0092
2089.00,0.0093
2088.00,0.0093
2087.00,0.0094
2086.00,0.0094
2085.00,0.0094
2084.00,0.0094
2083.00,0.0095
2082.00,0.0096
2081.00,0.0096
2080.00,0.0096
2079.00,0.0094
2078.00,0.0093
2077.00,0.0092
2076.00,0.0092
2075.00,0.0093
2074.00,0.0093
2073.00,0.0093
2072.00,0.0093
2071.00,0.0093
2070.00,0.0093
2069.00,0.0093
2068.00,0.0093
2067.00,0.0091
2066.00,0.0088
2065.00,0.0086
2064.00,0.0085
2063.00,0.0085
2062.00,0.0085
2061.00,0.0085
2060.00,0.0086
2059.00,0.0086
2058.00,0.0086
2057.00,0.0087
2056.00,0.0088
2055.00,0.0089
2054.00,0.0090
2053.00,0.0093
2052.00,0.0095
2051.00,0.0096
2050.00,0.0095
2049.00,0.0094
2048.00,0.0094
2047.00,0.0093
2046.00,0.0091
2045.00,0.0090
2044.00,0.0091
2043.00,0.0092
2042.00,0.0094
2041.00,0.0096
2040.00,0.0096
2039.00,0.0096
2038.00,0.0095
2037.00,0.0092
2036.00,0.0090
2035.00,0.0086
2034.00,0.0084
2033.00,0.0082
2032.00,0.0081
2031.00,0.0080
2030.00,0.0079
2029.00,0.0079
2028.00,0.0080
2027.00,0.0079
2026.00,0.0078
2025.00,0.0078
2024.00,0.0078
2023.00,0.0078
2022.00,0.0077
2021.00,0.0076
2020.00,0.0075
2019.00,0.0075
2018.00,0.0076
2017.00,0.0079
2016.00,0.0081
2015.00,0.0081
2014.00,0.0078
2013.00,0.0072
2012.00,0.0067
2011.00,0.0063
2010.00,0.0064
2009.00,0.0068
2008.00,0.0074
2007.00,0.0076
2006.00,0.0076
2005.00,0.0074
2004.00,0.0072
2003.00,0.0071
2002.00,0.0070
2001.00,0.0072
2000.00,0.0075
1999.00,0.0078
1998.00,0.0081
1997.00,0.0081
1996.00,0.0078
1995.00,0.0075
1994.00,0.0072
1993.00,0.0073
1992.00,0.0077
1991.00,0.0081
1990.00,0.0084
1989.00,0.0086
1988.00,0.0088
1987.00,0.0089
1986.00,0.0089
1985.00,0.0089
1984.00,0.0089
1983.00,0.0090
1982.00,0.0090
1981.00,0.0090
1980.00,0.0088
1979.00,0.0084
1978.00,0.0078
1977.00,0.0072
1976.00,0.0068
1975.00,0.0066
1974.00,0.0065
1973.00,0.0066
1972.00,0.0067
1971.00,0.0068
1970.00,0.0067
1969.00,0.0066
1968.00,0.0066
1967.00,0.0066
1966.00,0.0067
1965.00,0.0068
1964.00,0.0068
1963.00,0.0067
1962.00,0.0065
1961.00,0.0065
1960.00,0.0066
1959.00,0.0067
1958.00,0.0068
1957.00,0.0069
1956.00,0.0070
1955.00,0.0071
1954.00,0.0072
1953.00,0.0074
1952.00,0.0075
1951.00,0.0074
1950.00,0.0070
1949.00,0.0067
1948.00,0.0064
1947.00,0.0064
1946.00,0.0065
1945.00,0.0067
1944.00,0.0068
1943.00,0.0068
1942.00,0.0067
1941.00,0.0065
1940.00,0.0065
1939.00,0.0066
1938.00,0.0067
1937.00,0.0069
1936.00,0.0071
1935.00,0.0072
1934.00,0.0072
1933.00,0.0071
1932.00,0.0069
1931.00,0.0067
1930.00,0.0065
1929.00,0.0065
1928.00,0.0067
1927.00,0.0069
1926.00,0.0070
1925.00,0.0070
1924.00,0.0070
1923.00,0.0069
1922.00,0.0069
1921.00,0.0069
1920.00,0.0071
1919.00,0.0072
1918.00,0.0073
1917.00,0.0073
1916.00,0.0073
1915.00,0.0072
1914.00,0.0071
1913.00,0.0070
1912.00,0.0070
1911.00,0.0070
1910.00,0.0070
1909.00,0.0070
1908.00,0.0070
1907.00,0.0070
1906.00,0.0070
1905.00,0.0070
1904.00,0.0071
1903.00,0.0071
1902.00,0.0072
1901.00,0.0072
1900.00,0.0072
1899.00,0.0072
1898.00,0.0071
1897.00,0.0071
1896.00,0.0071
1895.00,0.0070
1894.00,0.0070
1893.00,0.0070
1892.00,0.0070
1891.00,0.0070
1890.00,0.0069
1889.00,0.0068
1888.00,0.0068
1887.00,0.0068
1886.00,0.0068
1885.00,0.0068
1884.00,0.0068
1883.00,0.0068
1882.00,0.0068
1881.00,0.0068
1880.00,0.0068
1879.00,0.0068
1878.00,0.0068
1877.00,0.0067
1876.00,0.0067
1875.00,0.0067
1874.00,0.0067
1873.00,0.0067
1872.00,0.0067
1871.00,0.0066
1870.00,0.0066
1869.00,0.0067
1868.00,0.0068
1867.00,0.0068
1866.00,0.0068
1865.00,0.0067
1864.00,0.0067
1863.00,0.0067
1862.00,0.0067
1861.00,0.0067
1860.00,0.0066
1859.00,0.0066
1858.00,0.0066
1857.00,0.0067
1856.00,0.0067
1855.00,0.0067
1854.00,0.0067
1853.00,0.0066
1852.00,0.0066
1851.00,0.0066
1850.00,0.0066
1849.00,0.0065
1848.00,0.0065
1847.00,0.0065
1846.00,0.0065
1845.00,0.0065
1844.00,0.0066
1843.00,0.0067
1842.00,0.0066
1841.00,0.0065
1840.00,0.0064
1839.00,0.0063
1838.00,0.0062
1837.00,0.0062
1836.00,0.0063
1835.00,0.0064
1834.00,0.0064
1833.00,0.0064
1832.00,0.0063
1831.00,0.0062
1830.00,0.0061
1829.00,0.0062
1828.00,0.0063
1827.00,0.0064
1826.00,0.0064
1825.00,0.0063
1824.00,0.0063
1823.00,0.0062
1822.00,0.0062
1821.00,0.0063
1820.00,0.0063
1819.00,0.0062
1818.00,0.0061
1817.00,0.0061
1816.00,0.0061
1815.00,0.0061
1814.00,0.0061
1813.00,0.0062
1812.00,0.0062
1811.00,0.0062
1810.00,0.0063
1809.00,0.0063
1808.00,0.0064
1807.00,0.0063
1806.00,0.0063
1805.00,0.0063
1804.00,0.0063
1803.00,0.0062
1802.00,0.0062
1801.00,0.0062
1800.00,0.0063
1799.00,0.0063
1798.00,0.0064
1797.00,0.0064
1796.00,0.0063
1795.00,0.0063
1794.00,0.0062
1793.00,0.0062
1792.00,0.0063
1791.00,0.0063
1790.00,0.0063
1789.00,0.0063
1788.00,0.0062
1787.00,0.0062
1786.00,0.0061
1785.00,0.0061
1784.00,0.0061
1783.00,0.0062
1782.00,0.0062
1781.00,0.0062
1780.00,0.0062
1779.00,0.0062
1778.00,0.0062
1777.00,0.0062
1776.00,0.0062
1775.00,0.0062
1774.00,0.0063
1773.00,0.0064
1772.00,0.0066
1771.00,0.0066
1770.00,0.0065
1769.00,0.0063
1768.00,0.0062
1767.00,0.0062
1766.00,0.0062
1765.00,0.0063
1764.00,0.0063
1763.00,0.0063
1762.00,0.0064
1761.00,0.0065
1760.00,0.0066
1759.00,0.0066
1758.00,0.0065
1757.00,0.0064
1756.00,0.0064
1755.00,0.0065
1754.00,0.0065
1753.00,0.0065
1752.00,0.0066
1751.00,0.0067
1750.00,0.0067
1749.00,0.0068
1748.00,0.0068
1747.00,0.0068
1746.00,0.0067
1745.00,0.0067
1744.00,0.0067
1743.00,0.0068
1742.00,0.0068
1741.00,0.0070
1740.00,0.0071
1739.00,0.0073
1738.00,0.0073
1737.00,0.0074
1736.00,0.0074
1735.00,0.0076
1734.00,0.0078
1733.00,0.0080
1732.00,0.0081
1731.00,0.0078
1730.00,0.0075
1729.00,0.0074
1728.00,0.0075
1727.00,0.0076
1726.00,0.0077
1725.00,0.0078
1724.00,0.0079
1723.00,0.0080
1722.00,0.0081
1721.00,0.0082
1720.00,0.0084
1719.00,0.0088
1718.00,0.0092
1717.00,0.0097
1716.00,0.0103
1715.00,0.0106
1714.00,0.0107
1713.00,0.0111
1712.00,0.0117
1711.00,0.0125
1710.00,0.0134
1709.00,0.0145
1708.00,0.0157
1707.00,0.0173
1706.00,0.0192
1705.00,0.0215
1704.00,0.0238
1703.00,0.0259
1702.00,0.0280
1701.00,0.0306
1700.00,0.0334
1699.00,0.0355
1698.00,0.0365
1697.00,0.0371
1696.00,0.0377
1695.00,0.0384
1694.00,0.0389
1693.00,0.0391
1692.00,0.0394
1691.00,0.0398
1690.00,0.0406
1689.00,0.0415
1688.00,0.0424
1687.00,0.0435
1686.00,0.0448
1685.00,0.0466
1684.00,0.0488
1683.00,0.0505
1682.00,0.0515
1681.00,0.0523
1680.00,0.0534
1679.00,0.0547
1678.00,0.0561
1677.00,0.0577
1676.00,0.0595
1675.00,0.0615
1674.00,0.0633
1673.00,0.0649
1672.00,0.0663
1671.00,0.0679
1670.00,0.0699
1669.00,0.0721
1668.00,0.0742
1667.00,0.0759
1666.00,0.0774
1665.00,0.0790
1664.00,0.0809
1663.00,0.0832
1662.00,0.0854
1661.00,0.0875
1660.00,0.0894
1659.00,0.0912
1658.00,0.0928
1657.00,0.0944
1656.00,0.0960
1655.00,0.0977
1654.00,0.0998
1653.00,0.1024
1652.00,0.1047
1651.00,0.1059
1650.00,0.1060
1649.00,0.1060
1648.00,0.1065
1647.00,0.1077
1646.00,0.1089
1645.00,0.1100
1644.00,0.1108
1643.00,0.1115
1642.00,0.1121
1641.00,0.1128
1640.00,0.1136
1639.00,0.1146
1638.00,0.1155
1637.00,0.1167
1636.00,0.1181
1635.00,0.1197
1634.00,0.1210
1633.00,0.1218
1632.00,0.1225
1631.00,0.1233
1630.00,0.1240
1629.00,0.1247
1628.00,0.1254
1627.00,0.1259
1626.00,0.1261
1625.00,0.1258
1624.00,0.1251
1623.00,0.1238
1622.00,0.1221
1621.00,0.1202
1620.00,0.1183
1619.00,0.1161
1618.00,0.1133
1617.00,0.1096
1616.00,0.1056
1615.00,0.1019
1614.00,0.0986
1613.00,0.0952
1612.00,0.0917
1611.00,0.0882
1610.00,0.0846
1609.00,0.0809
1608.00,0.0773
1607.00,0.0740
1606.00,0.0709
1605.00,0.0681
1604.00,0.0654
1603.00,0.0630
1602.00,0.0609
1601.00,0.0590
1600.00,0.0572
1599.00,0.0557
1598.00,0.0543
1597.00,0.0531
1596.00,0.0518
1595.00,0.0506
1594.00,0.0495
1593.00,0.0485
1592.00,0.0475
1591.00,0.0465
1590.00,0.0457
1589.00,0.0451
1588.00,0.0444
1587.00,0.0439
1586.00,0.0435
1585.00,0.0433
1584.00,0.0431
1583.00,0.0430
1582.00,0.0432
1581.00,0.0435
1580.00,0.0437
1579.00,0.0440
1578.00,0.0445
1577.00,0.0455
1576.00,0.0466
1575.00,0.0477
1574.00,0.0484
1573.00,0.0488
1572.00,0.0492
1571.00,0.0499
1570.00,0.0512
1569.00,0.0527
1568.00,0.0541
1567.00,0.0552
1566.00,0.0565
1565.00,0.0579
1564.00,0.0594
1563.00,0.0607
1562.00,0.0620
1561.00,0.0635
1560.00,0.0655
1559.00,0.0681
1558.00,0.0709
1557.00,0.0727
1556.00,0.0737
1555.00,0.0747
1554.00,0.0761
1553.00,0.0777
1552.00,0.0790
1551.00,0.0803
1550.00,0.0816
1549.00,0.0831
1548.00,0.0846
1547.00,0.0859
1546.00,0.0871
1545.00,0.0884
1544.00,0.0897
1543.00,0.0909
1542.00,0.0921
1541.00,0.0937
1540.00,0.0955
1539.00,0.0973
1538.00,0.0986
1537.00,0.0992
1536.00,0.0995
1535.00,0.1000
1534.00,0.1008
1533.00,0.1020
1532.00,0.1030
1531.00,0.1039
1530.00,0.1048
1529.00,0.1058
1528.00,0.1067
1527.00,0.1077
1526.00,0.1088
1525.00,0.1099
1524.00,0.1109
1523.00,0.1120
1522.00,0.1134
1521.00,0.1150
1520.00,0.1164
1519.00,0.1174
1518.00,0.1183
1517.00,0.1192
1516.00,0.1197
1515.00,0.1199
1514.00,0.1195
1513.00,0.1186
1512.00,0.1172
1511.00,0.1155
1510.00,0.1139
1509.00,0.1121
1508.00,0.1098
1507.00,0.1066
1506.00,0.1034
1505.00,0.1010
1504.00,0.0989
1503.00,0.0967
1502.00,0.0943
1501.00,0.0917
1500.00,0.0891
1499.00,0.0865
1498.00,0.0837
1497.00,0.0808
1496.00,0.0779
1495.00,0.0754
1494.00,0.0732
1493.00,0.0710
1492.00,0.0687
1491.00,0.0663
1490.00,0.0638
1489.00,0.0614
1488.00,0.0594
1487.00,0.0577
1486.00,0.0563
1485.00,0.0549
1484.00,0.0536
1483.00,0.0524
1482.00,0.0512
1481.00,0.0501
1480.00,0.0492
1479.00,0.0484
1478.00,0.0477
1477.00,0.0470
1476.00,0.0463
1475.00,0.0459
1474.00,0.0457
1473.00,0.0456
1472.00,0.0457
1471.00,0.0458
1470.00,0.0459
1469.00,0.0459
1468.00,0.0459
1467.00,0.0459
1466.00,0.0459
1465.00,0.0460
1464.00,0.0461
1463.00,0.0464
1462.00,0.0467
1461.00,0.0471
1460.00,0.0476
1459.00,0.0482
1458.00,0.0493
1457.00,0.0507
1456.00,0.0521
1455.00,0.0533
1454.00,0.0540
1453.00,0.0546
1452.00,0.0553
1451.00,0.0560
1450.00,0.0566
1449.00,0.0569
1448.00,0.0570
1447.00,0.0570
1446.00,0.0568
1445.00,0.0566
1444.00,0.0562
1443.00,0.0558
1442.00,0.0553
1441.00,0.0547
1440.00,0.0541
1439.00,0.0535
1438.00,0.0526
1437.00,0.0515
1436.00,0.0503
1435.00,0.0492
1434.00,0.0484
1433.00,0.0475
1432.00,0.0467
1431.00,0.0460
1430.00,0.0453
1429.00,0.0447
1428.00,0.0443
1427.00,0.0441
1426.00,0.0439
1425.00,0.0437
1424.00,0.0437
1423.00,0.0437
1422.00,0.0439
1421.00,0.0441
1420.00,0.0443
1419.00,0.0445
1418.00,0.0448
1417.00,0.0449
1416.00,0.0451
1415.00,0.0453
1414.00,0.0456
1413.00,0.0457
1412.00,0.0458
1411.00,0.0458
1410.00,0.0457
1409.00,0.0455
1408.00,0.0453
1407.00,0.0451
1406.00,0.0447
1405.00,0.0443
1404.00,0.0438
1403.00,0.0434
1402.00,0.0430
1401.00,0.0426
1400.00,0.0422
1399.00,0.0417
1398.00,0.0413
1397.00,0.0410
1396.00,0.0408
1395.00,0.0407
1394.00,0.0406
1393.00,0.0406
1392.00,0.0407
1391.00,0.0408
1390.00,0.0408
1389.00,0.0407
1388.00,0.0406
1387.00,0.0406
1386.00,0.0405
1385.00,0.0405
1384.00,0.0405
1383.00,0.0404
1382.00,0.0404
1381.00,0.0403
1380.00,0.0403
1379.00,0.0403
1378.00,0.0404
1377.00,0.0404
1376.00,0.0404
1375.00,0.0404
1374.00,0.0403
1373.00,0.0404
1372.00,0.0404
1371.00,0.0405
1370.00,0.0405
1369.00,0.0404
1368.00,0.0401
1367.00,0.0398
1366.00,0.0394
1365.00,0.0390
1364.00,0.0385
1363.00,0.0379
1362.00,0.0373
1361.00,0.0368
1360.00,0.0365
1359.00,0.0363
1358.00,0.0361
1357.00,0.0360
1356.00,0.0358
1355.00,0.0357
1354.00,0.0357
1353.00,0.0357
1352.00,0.0358
1351.00,0.0359
1350.00,0.0360
1349.00,0.0361
1348.00,0.0362
1347.00,0.0364
1346.00,0.0366
1345.00,0.0368
1344.00,0.0370
1343.00,0.0371
1342.00,0.0373
1341.00,0.0374
1340.00,0.0375
1339.00,0.0376
1338.00,0.0377
1337.00,0.0378
1336.00,0.0379
1335.00,0.0380
1334.00,0.0380
1333.00,0.0380
1332.00,0.0379
1331.00,0.0377
1330.00,0.0375
1329.00,0.0373
1328.00,0.0371
1327.00,0.0369
1326.00,0.0367
1325.00,0.0366
1324.00,0.0365
1323.00,0.0364
1322.00,0.0363
1321.00,0.0362
1320.00,0.0361
1319.00,0.0361
1318.00,0.0361
1317.00,0.0361
1316.00,0.0362
1315.00,0.0363
1314.00,0.0364
1313.00,0.0365
1312.00,0.0366
1311.00,0.0367
1310.00,0.0368
1309.00,0.0369
1308.00,0.0370
1307.00,0.0371
1306.00,0.0371
1305.00,0.0372
1304.00,0.0373
1303.00,0.0373
1302.00,0.0374
1301.00,0.0375
1300.00,0.0375
1299.00,0.0376
1298.00,0.0376
1297.00,0.0376
1296.00,0.0377
1295.00,0.0378
1294.00,0.0379
1293.00,0.0381
1292.00,0.0382
1291.00,0.0383
1290.00,0.0384
1289.00,0.0386
1288.00,0.0387
1287.00,0.0390
1286.00,0.0392
1285.00,0.0394
1284.00,0.0396
1283.00,0.0399
1282.00,0.0401
1281.00,0.0404
1280.00,0.0406
1279.00,0.0410
1278.00,0.0413
1277.00,0.0418
1276.00,0.0423
1275.00,0.0429
1274.00,0.0434
1273.00,0.0440
1272.00,0.0446
1271.00,0.0452
1270.00,0.0458
1269.00,0.0464
1268.00,0.0469
1267.00,0.0474
1266.00,0.0479
1265.00,0.0482
1264.00,0.0485
1263.00,0.0488
1262.00,0.0490
1261.00,0.0492
1260.00,0.0494
1259.00,0.0496
1258.00,0.0498
1257.00,0.0500
1256.00,0.0501
1255.00,0.0502
1254.00,0.0503
1253.00,0.0505
1252.00,0.0508
1251.00,0.0511
1250.00,0.0515
1249.00,0.0520
1248.00,0.0524
1247.00,0.0529
1246.00,0.0533
1245.00,0.0538
1244.00,0.0542
1243.00,0.0548
1242.00,0.0553
1241.00,0.0558
1240.00,0.0563
1239.00,0.0568
1238.00,0.0573
1237.00,0.0578
1236.00,0.0583
1235.00,0.0587
1234.00,0.0590
1233.00,0.0592
1232.00,0.0594
1231.00,0.0595
1230.00,0.0594
1229.00,0.0592
1228.00,0.0589
1227.00,0.0585
1226.00,0.0579
1225.00,0.0572
1224.00,0.0565
1223.00,0.0557
1222.00,0.0549
1221.00,0.0541
1220.00,0.0532
1219.00,0.0523
1218.00,0.0514
1217.00,0.0504
1216.00,0.0493
1215.00,0.0482
1214.00,0.0472
1213.00,0.0461
1212.00,0.0451
1211.00,0.0441
1210.00,0.0431
1209.00,0.0421
1208.00,0.0412
1207.00,0.0402
1206.00,0.0393
1205.00,0.0385
1204.00,0.0377
1203.00,0.0370
1202.00,0.0363
1201.00,0.0356
1200.00,0.0350
1199.00,0.0344
1198.00,0.0338
1197.00,0.0333
1196.00,0.0329
1195.00,0.0326
1194.00,0.0323
1193.00,0.0322
1192.00,0.0320
1191.00,0.0317
1190.00,0.0315
1189.00,0.0313
1188.00,0.0311
1187.00,0.0311
1186.00,0.0311
1185.00,0.0311
1184.00,0.0312
1183.00,0.0312
1182.00,0.0313
1181.00,0.0315
1180.00,0.0319
1179.00,0.0323
1178.00,0.0329
1177.00,0.0334
1176.00,0.0339
1175.00,0.0344
1174.00,0.0349
1173.00,0.0353
1172.00,0.0356
1171.00,0.0358
1170.00,0.0360
1169.00,0.0361
1168.00,0.0361
1167.00,0.0361
1166.00,0.0360
1165.00,0.0358
1164.00,0.0356
1163.00,0.0354
1162.00,0.0351
1161.00,0.0348
1160.00,0.0344
1159.00,0.0341
1158.00,0.0337
1157.00,0.0332
1156.00,0.0328
1155.00,0.0323
1154.00,0.0318
1153.00,0.0313
1152.00,0.0308
1151.00,0.0303
1150.00,0.0299
1149.00,0.0295
1148.00,0.0292
1147.00,0.0289
1146.00,0.0286
1145.00,0.0283
1144.00,0.0280
1143.00,0.0278
1142.00,0.0276
1141.00,0.0275
1140.00,0.0274
1139.00,0.0273
1138.00,0.0272
1137.00,0.0271
1136.00,0.0271
1135.00,0.0271
1134.00,0.0272
1133.00,0.0273
1132.00,0.0274
1131.00,0.0274
1130.00,0.0274
1129.00,0.0275
1128.00,0.0275
1127.00,0.0276
1126.00,0.0277
1125.00,0.0278
1124.00,0.0279
1123.00,0.0279
1122.00,0.0280
1121.00,0.0280
1120.00,0.0280
1119.00,0.0281
1118.00,0.0281
1117.00,0.0281
1116.00,0.0282
1115.00,0.0282
1114.00,0.0283
1113.00,0.0284
1112.00,0.0284
1111.00,0.0285
1110.00,0.0286
1109.00,0.0286
1108.00,0.0287
1107.00,0.0289
1106.00,0.0291
1105.00,0.0292
1104.00,0.0291
1103.00,0.0291
1102.00,0.0290
1101.00,0.0288
1100.00,0.0286
1099.00,0.0284
1098.00,0.0282
1097.00,0.0281
1096.00,0.0280
1095.00,0.0279
1094.00,0.0279
1093.00,0.0279
1092.00,0.0279
1091.00,0.0280
1090.00,0.0281
1089.00,0.0283
1088.00,0.0284
1087.00,0.0285
1086.00,0.0287
1085.00,0.0290
1084.00,0.0293
1083.00,0.0296
1082.00,0.0298
1081.00,0.0300
1080.00,0.0302
1079.00,0.0304
1078.00,0.0306
1077.00,0.0308
1076.00,0.0310
1075.00,0.0312
1074.00,0.0313
1073.00,0.0314
1072.00,0.0315
1071.00,0.0316
1070.00,0.0318
1069.00,0.0320
1068.00,0.0321
1067.00,0.0322
1066.00,0.0324
1065.00,0.0325
1064.00,0.0326
1063.00,0.0326
1062.00,0.0326
1061.00,0.0326
1060.00,0.0326
1059.00,0.0327
1058.00,0.0327
1057.00,0.0328
1056.00,0.0328
1055.00,0.0327
1054.00,0.0326
1053.00,0.0325
1052.00,0.0323
1051.00,0.0321
1050.00,0.0320
1049.00,0.0318
1048.00,0.0316
1047.00,0.0314
1046.00,0.0312
1045.00,0.0309
1044.00,0.0307
1043.00,0.0304
1042.00,0.0301
1041.00,0.0299
1040.00,0.0298
1039.00,0.0297
1038.00,0.0296
1037.00,0.0295
1036.00,0.0294
1035.00,0.0294
1034.00,0.0293
1033.00,0.0292
1032.00,0.0292
1031.00,0.0291
1030.00,0.0291
1029.00,0.0291
1028.00,0.0290
1027.00,0.0290
1026.00,0.0290
1025.00,0.0291
1024.00,0.0292
1023.00,0.0293
1022.00,0.0296
1021.00,0.0299
1020.00,0.0303
1019.00,0.0306
1018.00,0.0309
1017.00,0.0311
1016.00,0.0313
1015.00,0.0314
1014.00,0.0314
1013.00,0.0313
1012.00,0.0312
1011.00,0.0311
1010.00,0.0310
1009.00,0.0308
1008.00,0.0307
1007.00,0.0305
1006.00,0.0304
1005.00,0.0304
1004.00,0.0304
1003.00,0.0305
1002.00,0.0305
1001.00,0.0305
1000.00,0.0304
999.00,0.0303
998.00,0.0300
997.00,0.0297
996.00,0.0294
995.00,0.0290
994.00,0.0286
993.00,0.0282
992.00,0.0278
991.00,0.0273
990.00,0.0269
989.00,0.0265
988.00,0.0263
987.00,0.0261
986.00,0.0260
985.00,0.0260
984.00,0.0261
983.00,0.0262
982.00,0.0263
981.00,0.0264
980.00,0.0265
979.00,0.0265
978.00,0.0265
977.00,0.0265
976.00,0.0264
975.00,0.0263
974.00,0.0261
973.00,0.0257
972.00,0.0253
971.00,0.0248
970.00,0.0244
969.00,0.0241
968.00,0.0238
967.00,0.0235
966.00,0.0233
965.00,0.0230
964.00,0.0229
963.00,0.0228
962.00,0.0228
961.00,0.0227
960.00,0.0225
959.00,0.0224
958.00,0.0222
957.00,0.0221
956.00,0.0221
955.00,0.0221
954.00,0.0221
953.00,0.0221
952.00,0.0220
951.00,0.0220
950.00,0.0220
949.00,0.0221
948.00,0.0221
947.00,0.0222
946.00,0.0222
945.00,0.0222
944.00,0.0222
943.00,0.0223
942.00,0.0224
941.00,0.0224
940.00,0.0224
939.00,0.0225
938.00,0.0226
937.00,0.0227
936.00,0.0229
935.00,0.0230
934.00,0.0232
933.00,0.0233
932.00,0.0233
931.00,0.0234
930.00,0.0235
929.00,0.0235
928.00,0.0235
927.00,0.0235
926.00,0.0235
925.00,0.0235
924.00,0.0234
923.00,0.0233
922.00,0.0232
921.00,0.0231
920.00,0.0230
919.00,0.0229
918.00,0.0227
917.00,0.0226
916.00,0.0224
915.00,0.0223
914.00,0.0223
913.00,0.0223
912.00,0.0222
911.00,0.0221
910.00,0.0220
909.00,0.0218
908.00,0.0217
907.00,0.0216
906.00,0.0216
905.00,0.0216
904.00,0.0216
903.00,0.0215
902.00,0.0215
901.00,0.0215
900.00,0.0215
899.00,0.0216
898.00,0.0216
897.00,0.0217
896.00,0.0217
895.00,0.0217
894.00,0.0217
893.00,0.0217
892.00,0.0217
891.00,0.0217
890.00,0.0217
889.00,0.0217
888.00,0.0217
887.00,0.0217
886.00,0.0217
885.00,0.0218
884.00,0.0218
883.00,0.0219
882.00,0.0219
881.00,0.0219
880.00,0.0219
879.00,0.0219
878.00,0.0219
877.00,0.0219
876.00,0.0219
875.00,0.0219
874.00,0.0220
873.00,0.0221
872.00,0.0222
871.00,0.0222
870.00,0.0222
869.00,0.0222
868.00,0.0222
867.00,0.0222
866.00,0.0223
865.00,0.0223
864.00,0.0225
863.00,0.0227
862.00,0.0230
861.00,0.0232
860.00,0.0235
859.00,0.0237
858.00,0.0240
857.00,0.0243
856.00,0.0246
855.00,0.0249
854.00,0.0252
853.00,0.0254
852.00,0.0255
851.00,0.0256
850.00,0.0256
849.00,0.0256
848.00,0.0256
847.00,0.0255
846.00,0.0255
845.00,0.0254
844.00,0.0255
843.00,0.0255
842.00,0.0256
841.00,0.0257
840.00,0.0258
839.00,0.0260
838.00,0.0262
837.00,0.0264
836.00,0.0266
835.00,0.0268
834.00,0.0270
833.00,0.0272
832.00,0.0274
831.00,0.0276
830.00,0.0277
829.00,0.0279
828.00,0.0280
827.00,0.0281
826.00,0.0281
825.00,0.0281
824.00,0.0279
823.00,0.0278
822.00,0.0277
821.00,0.0277
820.00,0.0277
819.00,0.0277
818.00,0.0278
817.00,0.0278
816.00,0.0278
815.00,0.0279
814.00,0.0280
813.00,0.0280
812.00,0.0281
811.00,0.0283
810.00,0.0284
809.00,0.0286
808.00,0.0287
807.00,0.0288
806.00,0.0289
805.00,0.0290
804.00,0.0291
803.00,0.0293
802.00,0.0295
801.00,0.0296
800.00,0.0297
799.00,0.0297
798.00,0.0298
797.00,0.0298
796.00,0.0300
795.00,0.0302
794.00,0.0304
793.00,0.0308
792.00,0.0311
791.00,0.0313
790.00,0.0315
789.00,0.0317
788.00,0.0320
787.00,0.0322
786.00,0.0325
785.00,0.0328
784.00,0.0331
783.00,0.0333
782.00,0.0336
781.00,0.0338
780.00,0.0340
779.00,0.0341
778.00,0.0344
777.00,0.0347
776.00,0.0350
775.00,0.0352
774.00,0.0355
773.00,0.0358
772.00,0.0361
771.00,0.0364
770.00,0.0367
769.00,0.0370
768.00,0.0373
767.00,0.0375
766.00,0.0377
765.00,0.0378
764.00,0.0380
763.00,0.0383
762.00,0.0385
761.00,0.0387
760.00,0.0390
759.00,0.0392
758.00,0.0393
757.00,0.0395
756.00,0.0397
755.00,0.0400
754.00,0.0403
753.00,0.0406
752.00,0.0410
751.00,0.0413
750.00,0.0417
749.00,0.0420
748.00,0.0424
747.00,0.0429
746.00,0.0434
745.00,0.0438
744.00,0.0443
743.00,0.0448
742.00,0.0453
741.00,0.0457
740.00,0.0460
739.00,0.0464
738.00,0.0469
737.00,0.0474
736.00,0.0479
735.00,0.0485
734.00,0.0490
733.00,0.0496
732.00,0.0502
731.00,0.0508
730.00,0.0513
729.00,0.0518
728.00,0.0523
727.00,0.0528
726.00,0.0534
725.00,0.0540
724.00,0.0545
723.00,0.0551
722.00,0.0555
721.00,0.0560
720.00,0.0565
719.00,0.0570
718.00,0.0574
717.00,0.0577
716.00,0.0580
715.00,0.0583
714.00,0.0587
713.00,0.0592
712.00,0.0596
711.00,0.0601
710.00,0.0606
709.00,0.0610
708.00,0.0615
707.00,0.0619
706.00,0.0624
705.00,0.0628
704.00,0.0632
703.00,0.0636
702.00,0.0640
701.00,0.0644
700.00,0.0647
699.00,0.0650
698.00,0.0652
697.00,0.0655
696.00,0.0658
695.00,0.0661
694.00,0.0664
693.00,0.0666
692.00,0.0667
691.00,0.0668
690.00,0.0669
689.00,0.0670
688.00,0.0672
687.00,0.0674
686.00,0.0676
685.00,0.0678
684.00,0.0680
683.00,0.0680
682.00,0.0681
681.00,0.0682
680.00,0.0684
679.00,0.0686
678.00,0.0688
677.00,0.0690
676.00,0.0691
675.00,0.0693
674.00,0.0695
673.00,0.0696
672.00,0.0697
671.00,0.0698
670.00,0.0698
669.00,0.0698
668.00,0.0699
667.00,0.0702
666.00,0.0704
665.00,0.0705
664.00,0.0705
663.00,0.0706
662.00,0.0707
661.00,0.0708
660.00,0.0710
659.00,0.0712
658.00,0.0714
657.00,0.0716
656.00,0.0719
655.00,0.0722
654.00,0.0723
653.00,0.0724
652.00,0.0726
651.00,0.0727
650.00,0.0728
649.00,0.0730
648.00,0.0732
647.00,0.0733
646.00,0.0735
645.00,0.0737
644.00,0.0738
643.00,0.0740
642.00,0.0741
641.00,0.0742
640.00,0.0743
639.00,0.0743
638.00,0.0744
637.00,0.0745
636.00,0.0745
635.00,0.0744
634.00,0.0744
633.00,0.0744
632.00,0.0744
631.00,0.0743
630.00,0.0743
629.00,0.0742
628.00,0.0740
627.00,0.0739
626.00,0.0739
625.00,0.0739
624.00,0.0741
623.00,0.0743
622.00,0.0746
621.00,0.0749
620.00,0.0752
619.00,0.0755
618.00,0.0758
617.00,0.0761
616.00,0.0763
615.00,0.0766
614.00,0.0768
613.00,0.0769
612.00,0.0768
611.00,0.0766
610.00,0.0764
609.00,0.0762
608.00,0.0761
607.00,0.0759
606.00,0.0757
605.00,0.0755
604.00,0.0754
603.00,0.0753
602.00,0.0751
601.00,0.0749
600.00,0.0747
599.00,0.0746
598.00,0.0745
597.00,0.0745
596.00,0.0744
595.00,0.0744
594.00,0.0742
593.00,0.0741
592.00,0.0740
591.00,0.0740
590.00,0.0740
589.00,0.0739
588.00,0.0739
587.00,0.0739
586.00,0.0740
585.00,0.0741
584.00,0.0743
583.00,0.0745
582.00,0.0746
581.00,0.0748
580.00,0.0750
579.00,0.0753
578.00,0.0755
577.00,0.0757
576.00,0.0759
575.00,0.0761
574.00,0.0762
573.00,0.0764
572.00,0.0767
571.00,0.0771
570.00,0.0775
569.00,0.0780
568.00,0.0786
567.00,0.0793
566.00,0.0799
565.00,0.0805
564.00,0.0810
563.00,0.0815
562.00,0.0821
561.00,0.0828
560.00,0.0837
559.00,0.0844
558.00,0.0851
557.00,0.0857
556.00,0.0865
555.00,0.0873
554.00,0.0879
553.00,0.0882
552.00,0.0882
551.00,0.0881
550.00,0.0880
549.00,0.0879
548.00,0.0879
547.00,0.0878
546.00,0.0876
545.00,0.0874
544.00,0.0872
543.00,0.0869
542.00,0.0867
541.00,0.0864
540.00,0.0863
539.00,0.0861
538.00,0.0858
537.00,0.0855
536.00,0.0852
535.00,0.0850
534.00,0.0847
533.00,0.0844
532.00,0.0841
531.00,0.0837
530.00,0.0834
529.00,0.0832
528.00,0.0830
527.00,0.0828
526.00,0.0827
525.00,0.0825
524.00,0.0824
523.00,0.0823
522.00,0.0820
521.00,0.0817
520.00,0.0814
519.00,0.0811
518.00,0.0808
517.00,0.0807
516.00,0.0807
515.00,0.0809
514.00,0.0810
513.00,0.0810
512.00,0.0809
511.00,0.0808
510.00,0.0805
509.00,0.0802
508.00,0.0798
507.00,0.0794
506.00,0.0793
505.00,0.0794
504.00,0.0796
503.00,0.0796
502.00,0.0792
501.00,0.0786
500.00,0.0779
499.00,0.0775
498.00,0.0774
497.00,0.0777
496.00,0.0781
495.00,0.0784
494.00,0.0786
493.00,0.0785
492.00,0.0784
491.00,0.0781
490.00,0.0777
489.00,0.0773
488.00,0.0770
487.00,0.0771
486.00,0.0774
485.00,0.0778
484.00,0.0780
483.00,0.0779
482.00,0.0776
481.00,0.0773
480.00,0.0771
479.00,0.0771
478.00,0.0770
477.00,0.0768
476.00,0.0765
475.00,0.0763
474.00,0.0760
473.00,0.0759
472.00,0.0758
471.00,0.0757
470.00,0.0756
469.00,0.0756
468.00,0.0758
467.00,0.0759
466.00,0.0759
465.00,0.0758
464.00,0.0754
463.00,0.0751
462.00,0.0747
461.00,0.0745
460.00,0.0746
459.00,0.0747
458.00,0.0750
457.00,0.0752
456.00,0.0752
455.00,0.0748
454.00,0.0739
453.00,0.0731
452.00,0.0728
451.00,0.0730
450.00,0.0732
449.00,0.0731
448.00,0.0728
447.00,0.0723
446.00,0.0720
445.00,0.0719
444.00,0.0721
443.00,0.0723
442.00,0.0725
441.00,0.0726
440.00,0.0728
439.00,0.0730
438.00,0.0729
437.00,0.0727
436.00,0.0727
435.00,0.0728
434.00,0.0728
433.00,0.0728
432.00,0.0728
431.00,0.0729
430.00,0.0732
429.00,0.0736
428.00,0.0739
427.00,0.0741
426.00,0.0742
425.00,0.0743
424.00,0.0743
423.00,0.0741
422.00,0.0736
421.00,0.0730
420.00,0.0721
419.00,0.0709
418.00,0.0699
417.00,0.0696
416.00,0.0701
415.00,0.0710
414.00,0.0720
413.00,0.0724
412.00,0.0715
411.00,0.0694
410.00,0.0671
409.00,0.0659
408.00,0.0661
407.00,0.0670
406.00,0.0675
405.00,0.0673
404.00,0.0673
403.00,0.0679
402.00,0.0692
401.00,0.0703
400.00,0.0707
