Created as New Dataset,Sample 606 By YargerLab Date Thursday, June 05 2025
cm-1,A
4000.00,0.0047
3999.00,0.0047
3998.00,0.0046
3997.00,0.0046
3996.00,0.0046
3995.00,0.0046
3994.00,0.0046
3993.00,0.0046
3992.00,0.0045
3991.00,0.0045
3990.00,0.0045
3989.00,0.0045
3988.00,0.0046
3987.00,0.0046
3986.00,0.0046
3985.00,0.0046
3984.00,0.0046
3983.00,0.0046
3982.00,0.0046
3981.00,0.0046
3980.00,0.0046
3979.00,0.0046
3978.00,0.0046
3977.00,0.0046
3976.00,0.0046
3975.00,0.0046
3974.00,0.0046
3973.00,0.0046
3972.00,0.0046
3971.00,0.0046
3970.00,0.0046
3969.00,0.0046
3968.00,0.0046
3967.00,0.0046
3966.00,0.0046
3965.00,0.0046
3964.00,0.0046
3963.00,0.0046
3962.00,0.0046
3961.00,0.0046
3960.00,0.0046
3959.00,0.0046
3958.00,0.0046
3957.00,0.0046
3956.00,0.0046
3955.00,0.0046
3954.00,0.0046
3953.00,0.0045
3952.00,0.0045
3951.00,0.0045
3950.00,0.0045
3949.00,0.0045
3948.00,0.0045
3947.00,0.0045
3946.00,0.0045
3945.00,0.0045
3944.00,0.0045
3943.00,0.0045
3942.00,0.0045
3941.00,0.0045
3940.00,0.0045
3939.00,0.0045
3938.00,0.0045
3937.00,0.0046
3936.00,0.0046
3935.00,0.0045
3934.00,0.0045
3933.00,0.0045
3932.00,0.0045
3931.00,0.0045
3930.00,0.0045
3929.00,0.0044
3928.00,0.0044
3927.00,0.0044
3926.00,0.0045
3925.00,0.0045
3924.00,0.0045
3923.00,0.0045
3922.00,0.0045
3921.00,0.0045
3920.00,0.0045
3919.00,0.0045
3918.00,0.0044
3917.00,0.0044
3916.00,0.0044
3915.00,0.0044
3914.00,0.0044
3913.00,0.0045
3912.00,0.0045
3911.00,0.0045
3910.00,0.0045
3909.00,0.0045
3908.00,0.0045
3907.00,0.0045
3906.00,0.0045
3905.00,0.0044
3904.00,0.0044
3903.00,0.0043
3902.00,0.0043
3901.00,0.0043
3900.00,0.0043
3899.00,0.0043
3898.00,0.0044
3897.00,0.0044
3896.00,0.0044
3895.00,0.0044
3894.00,0.0045
3893.00,0.0045
3892.00,0.0044
3891.00,0.0044
3890.00,0.0044
3889.00,0.0044
3888.00,0.0043
3887.00,0.0043
3886.00,0.0043
3885.00,0.0043
3884.00,0.0043
3883.00,0.0043
3882.00,0.0042
3881.00,0.0042
3880.00,0.0043
3879.00,0.0043
3878.00,0.0043
3877.00,0.0043
3876.00,0.0043
3875.00,0.0043
3874.00,0.0043
3873.00,0.0043
3872.00,0.0043
3871.00,0.0042
3870.00,0.0042
3869.00,0.0042
3868.00,0.0042
3867.00,0.0042
3866.00,0.0042
3865.00,0.0042
3864.00,0.0043
3863.00,0.0043
3862.00,0.0043
3861.00,0.0042
3860.00,0.0042
3859.00,0.0042
3858.00,0.0043
3857.00,0.0043
3856.00,0.0043
3855.00,0.0043
3854.00,0.0042
3853.00,0.0041
3852.00,0.0041
3851.00,0.0041
3850.00,0.0041
3849.00,0.0041
3848.00,0.0042
3847.00,0.0042
3846.00,0.0042
3845.00,0.0042
3844.00,0.0042
3843.00,0.0042
3842.00,0.0042
3841.00,0.0042
3840.00,0.0041
3839.00,0.0041
3838.00,0.0041
3837.00,0.0041
3836.00,0.0041
3835.00,0.0042
3834.00,0.0042
3833.00,0.0042
3832.00,0.0042
3831.00,0.0042
3830.00,0.0042
3829.00,0.0042
3828.00,0.0042
3827.00,0.0042
3826.00,0.0042
3825.00,0.0042
3824.00,0.0042
3823.00,0.0041
3822.00,0.0041
3821.00,0.0041
3820.00,0.0041
3819.00,0.0041
3818.00,0.0041
3817.00,0.0041
3816.00,0.0041
3815.00,0.0042
3814.00,0.0042
3813.00,0.0042
3812.00,0.0042
3811.00,0.0043
3810.00,0.0043
3809.00,0.0042
3808.00,0.0042
3807.00,0.0042
3806.00,0.0042
3805.00,0.0042
3804.00,0.0041
3803.00,0.0041
3802.00,0.0041
3801.00,0.0041
3800.00,0.0041
3799.00,0.0041
3798.00,0.0041
3797.00,0.0041
3796.00,0.0042
3795.00,0.0043
3794.00,0.0043
3793.00,0.0043
3792.00,0.0043
3791.00,0.0044
3790.00,0.0044
3789.00,0.0044
3788.00,0.0044
3787.00,0.0044
3786.00,0.0044
3785.00,0.0044
3784.00,0.0043
3783.00,0.0043
3782.00,0.0043
3781.00,0.0043
3780.00,0.0043
3779.00,0.0043
3778.00,0.0043
3777.00,0.0043
3776.00,0.0043
3775.00,0.0043
3774.00,0.0043
3773.00,0.0043
3772.00,0.0043
3771.00,0.0043
3770.00,0.0043
3769.00,0.0043
3768.00,0.0043
3767.00,0.0042
3766.00,0.0042
3765.00,0.0042
3764.00,0.0043
3763.00,0.0042
3762.00,0.0042
3761.00,0.0042
3760.00,0.0042
3759.00,0.0042
3758.00,0.0042
3757.00,0.0042
3756.00,0.0042
3755.00,0.0042
3754.00,0.0041
3753.00,0.0041
3752.00,0.0041
3751.00,0.0040
3750.00,0.0040
3749.00,0.0039
3748.00,0.0039
3747.00,0.0039
3746.00,0.0039
3745.00,0.0039
3744.00,0.0039
3743.00,0.0039
3742.00,0.0039
3741.00,0.0039
3740.00,0.0038
3739.00,0.0038
3738.00,0.0038
3737.00,0.0038
3736.00,0.0037
3735.00,0.0038
3734.00,0.0038
3733.00,0.0038
3732.00,0.0039
3731.00,0.0039
3730.00,0.0039
3729.00,0.0040
3728.00,0.0040
3727.00,0.0040
3726.00,0.0040
3725.00,0.0040
3724.00,0.0040
3723.00,0.0041
3722.00,0.0041
3721.00,0.0041
3720.00,0.0041
3719.00,0.0041
3718.00,0.0041
3717.00,0.0042
3716.00,0.0042
3715.00,0.0042
3714.00,0.0041
3713.00,0.0041
3712.00,0.0040
3711.00,0.0040
3710.00,0.0040
3709.00,0.0040
3708.00,0.0040
3707.00,0.0040
3706.00,0.0041
3705.00,0.0041
3704.00,0.0041
3703.00,0.0042
3702.00,0.0042
3701.00,0.0042
3700.00,0.0043
3699.00,0.0043
3698.00,0.0043
3697.00,0.0042
3696.00,0.0042
3695.00,0.0042
3694.00,0.0042
3693.00,0.0042
3692.00,0.0042
3691.00,0.0041
3690.00,0.0041
3689.00,0.0041
3688.00,0.0041
3687.00,0.0041
3686.00,0.0041
3685.00,0.0041
3684.00,0.0042
3683.00,0.0042
3682.00,0.0042
3681.00,0.0042
3680.00,0.0042
3679.00,0.0042
3678.00,0.0042
3677.00,0.0042
3676.00,0.0041
3675.00,0.0041
3674.00,0.0042
3673.00,0.0041
3672.00,0.0041
3671.00,0.0041
3670.00,0.0042
3669.00,0.0044
3668.00,0.0044
3667.00,0.0045
3666.00,0.0045
3665.00,0.0046
3664.00,0.0046
3663.00,0.0047
3662.00,0.0048
3661.00,0.0048
3660.00,0.0048
3659.00,0.0048
3658.00,0.0048
3657.00,0.0049
3656.00,0.0049
3655.00,0.0049
3654.00,0.0049
3653.00,0.0049
3652.00,0.0049
3651.00,0.0049
3650.00,0.0049
3649.00,0.0049
3648.00,0.0050
3647.00,0.0051
3646.00,0.0052
3645.00,0.0053
3644.00,0.0054
3643.00,0.0054
3642.00,0.0055
3641.00,0.0056
3640.00,0.0057
3639.00,0.0057
3638.00,0.0058
3637.00,0.0058
3636.00,0.0059
3635.00,0.0059
3634.00,0.0060
3633.00,0.0060
3632.00,0.0061
3631.00,0.0061
3630.00,0.0061
3629.00,0.0062
3628.00,0.0063
3627.00,0.0064
3626.00,0.0064
3625.00,0.0065
3624.00,0.0065
3623.00,0.0066
3622.00,0.0067
3621.00,0.0067
3620.00,0.0068
3619.00,0.0069
3618.00,0.0069
3617.00,0.0069
3616.00,0.0070
3615.00,0.0070
3614.00,0.0070
3613.00,0.0071
3612.00,0.0072
3611.00,0.0073
3610.00,0.0074
3609.00,0.0074
3608.00,0.0075
3607.00,0.0076
3606.00,0.0077
3605.00,0.0078
3604.00,0.0078
3603.00,0.0079
3602.00,0.0079
3601.00,0.0080
3600.00,0.0081
3599.00,0.0081
3598.00,0.0082
3597.00,0.0083
3596.00,0.0083
3595.00,0.0084
3594.00,0.0084
3593.00,0.0085
3592.00,0.0085
3591.00,0.0086
3590.00,0.0086
3589.00,0.0087
3588.00,0.0088
3587.00,0.0089
3586.00,0.0090
3585.00,0.0090
3584.00,0.0091
3583.00,0.0092
3582.00,0.0092
3581.00,0.0093
3580.00,0.0094
3579.00,0.0095
3578.00,0.0095
3577.00,0.0096
3576.00,0.0097
3575.00,0.0098
3574.00,0.0098
3573.00,0.0099
3572.00,0.0100
3571.00,0.0099
3570.00,0.0099
3569.00,0.0099
3568.00,0.0100
3567.00,0.0101
3566.00,0.0102
3565.00,0.0103
3564.00,0.0104
3563.00,0.0104
3562.00,0.0105
3561.00,0.0106
3560.00,0.0107
3559.00,0.0109
3558.00,0.0110
3557.00,0.0111
3556.00,0.0111
3555.00,0.0112
3554.00,0.0112
3553.00,0.0113
3552.00,0.0114
3551.00,0.0114
3550.00,0.0114
3549.00,0.0115
3548.00,0.0115
3547.00,0.0116
3546.00,0.0117
3545.00,0.0118
3544.00,0.0120
3543.00,0.0120
3542.00,0.0121
3541.00,0.0121
3540.00,0.0122
3539.00,0.0123
3538.00,0.0123
3537.00,0.0124
3536.00,0.0125
3535.00,0.0126
3534.00,0.0126
3533.00,0.0126
3532.00,0.0126
3531.00,0.0127
3530.00,0.0128
3529.00,0.0129
3528.00,0.0130
3527.00,0.0130
3526.00,0.0131
3525.00,0.0132
3524.00,0.0132
3523.00,0.0133
3522.00,0.0134
3521.00,0.0135
3520.00,0.0135
3519.00,0.0136
3518.00,0.0136
3517.00,0.0137
3516.00,0.0138
3515.00,0.0139
3514.00,0.0139
3513.00,0.0140
3512.00,0.0140
3511.00,0.0140
3510.00,0.0141
3509.00,0.0142
3508.00,0.0143
3507.00,0.0143
3506.00,0.0143
3505.00,0.0143
3504.00,0.0144
3503.00,0.0145
3502.00,0.0146
3501.00,0.0147
3500.00,0.0148
3499.00,0.0148
3498.00,0.0149
3497.00,0.0150
3496.00,0.0150
3495.00,0.0151
3494.00,0.0152
3493.00,0.0152
3492.00,0.0153
3491.00,0.0153
3490.00,0.0154
3489.00,0.0155
3488.00,0.0155
3487.00,0.0156
3486.00,0.0157
3485.00,0.0157
3484.00,0.0158
3483.00,0.0158
3482.00,0.0159
3481.00,0.0159
3480.00,0.0160
3479.00,0.0160
3478.00,0.0161
3477.00,0.0161
3476.00,0.0162
3475.00,0.0163
3474.00,0.0163
3473.00,0.0164
3472.00,0.0164
3471.00,0.0165
3470.00,0.0165
3469.00,0.0165
3468.00,0.0166
3467.00,0.0166
3466.00,0.0166
3465.00,0.0166
3464.00,0.0166
3463.00,0.0165
3462.00,0.0165
3461.00,0.0164
3460.00,0.0164
3459.00,0.0163
3458.00,0.0162
3457.00,0.0162
3456.00,0.0161
3455.00,0.0161
3454.00,0.0161
3453.00,0.0161
3452.00,0.0161
3451.00,0.0162
3450.00,0.0163
3449.00,0.0165
3448.00,0.0168
3447.00,0.0172
3446.00,0.0175
3445.00,0.0179
3444.00,0.0182
3443.00,0.0185
3442.00,0.0188
3441.00,0.0191
3440.00,0.0193
3439.00,0.0194
3438.00,0.0196
3437.00,0.0197
3436.00,0.0198
3435.00,0.0199
3434.00,0.0200
3433.00,0.0201
3432.00,0.0201
3431.00,0.0202
3430.00,0.0203
3429.00,0.0204
3428.00,0.0205
3427.00,0.0206
3426.00,0.0206
3425.00,0.0207
3424.00,0.0208
3423.00,0.0208
3422.00,0.0209
3421.00,0.0210
3420.00,0.0211
3419.00,0.0212
3418.00,0.0213
3417.00,0.0215
3416.00,0.0216
3415.00,0.0216
3414.00,0.0217
3413.00,0.0218
3412.00,0.0219
3411.00,0.0220
3410.00,0.0221
3409.00,0.0222
3408.00,0.0223
3407.00,0.0223
3406.00,0.0224
3405.00,0.0225
3404.00,0.0226
3403.00,0.0227
3402.00,0.0228
3401.00,0.0229
3400.00,0.0229
3399.00,0.0230
3398.00,0.0231
3397.00,0.0232
3396.00,0.0233
3395.00,0.0234
3394.00,0.0234
3393.00,0.0235
3392.00,0.0237
3391.00,0.0238
3390.00,0.0239
3389.00,0.0240
3388.00,0.0241
3387.00,0.0242
3386.00,0.0243
3385.00,0.0244
3384.00,0.0245
3383.00,0.0246
3382.00,0.0247
3381.00,0.0248
3380.00,0.0249
3379.00,0.0250
3378.00,0.0251
3377.00,0.0252
3376.00,0.0253
3375.00,0.0255
3374.00,0.0256
3373.00,0.0257
3372.00,0.0258
3371.00,0.0259
3370.00,0.0260
3369.00,0.0261
3368.00,0.0262
3367.00,0.0264
3366.00,0.0266
3365.00,0.0267
3364.00,0.0269
3363.00,0.0270
3362.00,0.0271
3361.00,0.0273
3360.00,0.0274
3359.00,0.0275
3358.00,0.0277
3357.00,0.0278
3356.00,0.0279
3355.00,0.0281
3354.00,0.0282
3353.00,0.0283
3352.00,0.0284
3351.00,0.0286
3350.00,0.0288
3349.00,0.0290
3348.00,0.0291
3347.00,0.0293
3346.00,0.0294
3345.00,0.0296
3344.00,0.0297
3343.00,0.0299
3342.00,0.0300
3341.00,0.0302
3340.00,0.0303
3339.00,0.0305
3338.00,0.0307
3337.00,0.0309
3336.00,0.0311
3335.00,0.0313
3334.00,0.0315
3333.00,0.0316
3332.00,0.0318
3331.00,0.0320
3330.00,0.0321
3329.00,0.0323
3328.00,0.0325
3327.00,0.0326
3326.00,0.0329
3325.00,0.0331
3324.00,0.0334
3323.00,0.0336
3322.00,0.0338
3321.00,0.0340
3320.00,0.0342
3319.00,0.0344
3318.00,0.0346
3317.00,0.0348
3316.00,0.0351
3315.00,0.0353
3314.00,0.0355
3313.00,0.0356
3312.00,0.0358
3311.00,0.0360
3310.00,0.0362
3309.00,0.0363
3308.00,0.0365
3307.00,0.0368
3306.00,0.0370
3305.00,0.0373
3304.00,0.0376
3303.00,0.0379
3302.00,0.0382
3301.00,0.0384
3300.00,0.0386
3299.00,0.0387
3298.00,0.0388
3297.00,0.0390
3296.00,0.0391
3295.00,0.0393
3294.00,0.0394
3293.00,0.0396
3292.00,0.0398
3291.00,0.0401
3290.00,0.0403
3289.00,0.0405
3288.00,0.0406
3287.00,0.0407
3286.00,0.0408
3285.00,0.0409
3284.00,0.0410
3283.00,0.0411
3282.00,0.0412
3281.00,0.0413
3280.00,0.0413
3279.00,0.0413
3278.00,0.0413
3277.00,0.0413
3276.00,0.0412
3275.00,0.0411
3274.00,0.0410
3273.00,0.0409
3272.00,0.0408
3271.00,0.0408
3270.00,0.0407
3269.00,0.0407
3268.00,0.0406
3267.00,0.0405
3266.00,0.0403
3265.00,0.0402
3264.00,0.0400
3263.00,0.0398
3262.00,0.0396
3261.00,0.0394
3260.00,0.0392
3259.00,0.0390
3258.00,0.0387
3257.00,0.0384
3256.00,0.0382
3255.00,0.0380
3254.00,0.0378
3253.00,0.0377
3252.00,0.0375
3251.00,0.0373
3250.00,0.0370
3249.00,0.0367
3248.00,0.0365
3247.00,0.0363
3246.00,0.0361
3245.00,0.0359
3244.00,0.0358
3243.00,0.0356
3242.00,0.0354
3241.00,0.0352
3240.00,0.0350
3239.00,0.0349
3238.00,0.0347
3237.00,0.0345
3236.00,0.0342
3235.00,0.0340
3234.00,0.0339
3233.00,0.0337
3232.00,0.0336
3231.00,0.0336
3230.00,0.0334
3229.00,0.0333
3228.00,0.0332
3227.00,0.0330
3226.00,0.0329
3225.00,0.0328
3224.00,0.0326
3223.00,0.0325
3222.00,0.0324
3221.00,0.0323
3220.00,0.0322
3219.00,0.0320
3218.00,0.0319
3217.00,0.0318
3216.00,0.0316
3215.00,0.0315
3214.00,0.0314
3213.00,0.0314
3212.00,0.0313
3211.00,0.0312
3210.00,0.0310
3209.00,0.0309
3208.00,0.0308
3207.00,0.0307
3206.00,0.0306
3205.00,0.0305
3204.00,0.0304
3203.00,0.0303
3202.00,0.0302
3201.00,0.0301
3200.00,0.0299
3199.00,0.0298
3198.00,0.0297
3197.00,0.0296
3196.00,0.0295
3195.00,0.0294
3194.00,0.0293
3193.00,0.0292
3192.00,0.0291
3191.00,0.0289
3190.00,0.0288
3189.00,0.0287
3188.00,0.0286
3187.00,0.0285
3186.00,0.0284
3185.00,0.0283
3184.00,0.0282
3183.00,0.0281
3182.00,0.0279
3181.00,0.0278
3180.00,0.0276
3179.00,0.0275
3178.00,0.0274
3177.00,0.0273
3176.00,0.0272
3175.00,0.0270
3174.00,0.0269
3173.00,0.0268
3172.00,0.0267
3171.00,0.0266
3170.00,0.0265
3169.00,0.0263
3168.00,0.0262
3167.00,0.0261
3166.00,0.0260
3165.00,0.0259
3164.00,0.0258
3163.00,0.0257
3162.00,0.0255
3161.00,0.0254
3160.00,0.0253
3159.00,0.0252
3158.00,0.0250
3157.00,0.0249
3156.00,0.0247
3155.00,0.0246
3154.00,0.0245
3153.00,0.0244
3152.00,0.0243
3151.00,0.0242
3150.00,0.0241
3149.00,0.0240
3148.00,0.0239
3147.00,0.0238
3146.00,0.0237
3145.00,0.0236
3144.00,0.0235
3143.00,0.0233
3142.00,0.0232
3141.00,0.0231
3140.00,0.0230
3139.00,0.0229
3138.00,0.0228
3137.00,0.0228
3136.00,0.0227
3135.00,0.0227
3134.00,0.0226
3133.00,0.0225
3132.00,0.0224
3131.00,0.0223
3130.00,0.0222
3129.00,0.0221
3128.00,0.0220
3127.00,0.0220
3126.00,0.0219
3125.00,0.0218
3124.00,0.0218
3123.00,0.0217
3122.00,0.0216
3121.00,0.0215
3120.00,0.0214
3119.00,0.0214
3118.00,0.0213
3117.00,0.0213
3116.00,0.0213
3115.00,0.0213
3114.00,0.0214
3113.00,0.0214
3112.00,0.0214
3111.00,0.0213
3110.00,0.0213
3109.00,0.0212
3108.00,0.0213
3107.00,0.0213
3106.00,0.0214
3105.00,0.0214
3104.00,0.0214
3103.00,0.0214
3102.00,0.0214
3101.00,0.0214
3100.00,0.0214
3099.00,0.0214
3098.00,0.0215
3097.00,0.0215
3096.00,0.0216
3095.00,0.0216
3094.00,0.0216
3093.00,0.0216
3092.00,0.0216
3091.00,0.0216
3090.00,0.0217
3089.00,0.0217
3088.00,0.0218
3087.00,0.0218
3086.00,0.0218
3085.00,0.0218
3084.00,0.0219
3083.00,0.0219
3082.00,0.0219
3081.00,0.0219
3080.00,0.0219
3079.00,0.0220
3078.00,0.0220
3077.00,0.0221
3076.00,0.0222
3075.00,0.0223
3074.00,0.0223
3073.00,0.0223
3072.00,0.0223
3071.00,0.0222
3070.00,0.0221
3069.00,0.0221
3068.00,0.0220
3067.00,0.0220
3066.00,0.0221
3065.00,0.0221
3064.00,0.0221
3063.00,0.0222
3062.00,0.0222
3061.00,0.0222
3060.00,0.0222
3059.00,0.0221
3058.00,0.0221
3057.00,0.0220
3056.00,0.0219
3055.00,0.0219
3054.00,0.0218
3053.00,0.0217
3052.00,0.0217
3051.00,0.0216
3050.00,0.0216
3049.00,0.0215
3048.00,0.0214
3047.00,0.0213
3046.00,0.0212
3045.00,0.0211
3044.00,0.0210
3043.00,0.0209
3042.00,0.0209
3041.00,0.0209
3040.00,0.0208
3039.00,0.0208
3038.00,0.0207
3037.00,0.0206
3036.00,0.0205
3035.00,0.0204
3034.00,0.0203
3033.00,0.0202
3032.00,0.0202
3031.00,0.0202
3030.00,0.0201
3029.00,0.0201
3028.00,0.0200
3027.00,0.0199
3026.00,0.0198
3025.00,0.0197
3024.00,0.0196
3023.00,0.0195
3022.00,0.0194
3021.00,0.0193
3020.00,0.0192
3019.00,0.0190
3018.00,0.0189
3017.00,0.0188
3016.00,0.0186
3015.00,0.0185
3014.00,0.0184
3013.00,0.0183
3012.00,0.0182
3011.00,0.0182
3010.00,0.0181
3009.00,0.0181
3008.00,0.0180
3007.00,0.0179
3006.00,0.0178
3005.00,0.0177
3004.00,0.0176
3003.00,0.0175
3002.00,0.0174
3001.00,0.0173
3000.00,0.0172
2999.00,0.0171
2998.00,0.0171
2997.00,0.0171
2996.00,0.0171
2995.00,0.0171
2994.00,0.0171
2993.00,0.0171
2992.00,0.0172
2991.00,0.0173
2990.00,0.0173
2989.00,0.0174
2988.00,0.0176
2987.00,0.0177
2986.00,0.0177
2985.00,0.0177
2984.00,0.0176
2983.00,0.0175
2982.00,0.0175
2981.00,0.0177
2980.00,0.0179
2979.00,0.0183
2978.00,0.0187
2977.00,0.0190
2976.00,0.0193
2975.00,0.0196
2974.00,0.0198
2973.00,0.0200
2972.00,0.0203
2971.00,0.0205
2970.00,0.0208
2969.00,0.0212
2968.00,0.0215
2967.00,0.0218
2966.00,0.0220
2965.00,0.0222
2964.00,0.0224
2963.00,0.0225
2962.00,0.0226
2961.00,0.0226
2960.00,0.0226
2959.00,0.0226
2958.00,0.0225
2957.00,0.0224
2956.00,0.0222
2955.00,0.0220
2954.00,0.0218
2953.00,0.0217
2952.00,0.0215
2951.00,0.0215
2950.00,0.0214
2949.00,0.0214
2948.00,0.0215
2947.00,0.0216
2946.00,0.0217
2945.00,0.0219
2944.00,0.0221
2943.00,0.0223
2942.00,0.0225
2941.00,0.0227
2940.00,0.0229
2939.00,0.0231
2938.00,0.0233
2937.00,0.0234
2936.00,0.0236
2935.00,0.0237
2934.00,0.0238
2933.00,0.0238
2932.00,0.0239
2931.00,0.0239
2930.00,0.0239
2929.00,0.0238
2928.00,0.0238
2927.00,0.0237
2926.00,0.0237
2925.00,0.0236
2924.00,0.0234
2923.00,0.0233
2922.00,0.0232
2921.00,0.0230
2920.00,0.0228
2919.00,0.0226
2918.00,0.0223
2917.00,0.0220
2916.00,0.0217
2915.00,0.0214
2914.00,0.0210
2913.00,0.0207
2912.00,0.0205
2911.00,0.0202
2910.00,0.0200
2909.00,0.0198
2908.00,0.0196
2907.00,0.0194
2906.00,0.0193
2905.00,0.0192
2904.00,0.0190
2903.00,0.0189
2902.00,0.0188
2901.00,0.0187
2900.00,0.0186
2899.00,0.0185
2898.00,0.0184
2897.00,0.0182
2896.00,0.0181
2895.00,0.0180
2894.00,0.0179
2893.00,0.0178
2892.00,0.0177
2891.00,0.0176
2890.00,0.0175
2889.00,0.0175
2888.00,0.0175
2887.00,0.0175
2886.00,0.0175
2885.00,0.0176
2884.00,0.0176
2883.00,0.0177
2882.00,0.0178
2881.00,0.0179
2880.00,0.0180
2879.00,0.0182
2878.00,0.0183
2877.00,0.0184
2876.00,0.0184
2875.00,0.0184
2874.00,0.0184
2873.00,0.0183
2872.00,0.0182
2871.00,0.0180
2870.00,0.0179
2869.00,0.0177
2868.00,0.0176
2867.00,0.0175
2866.00,0.0174
2865.00,0.0173
2864.00,0.0172
2863.00,0.0172
2862.00,0.0171
2861.00,0.0170
2860.00,0.0170
2859.00,0.0169
2858.00,0.0169
2857.00,0.0169
2856.00,0.0170
2855.00,0.0170
2854.00,0.0170
2853.00,0.0169
2852.00,0.0169
2851.00,0.0168
2850.00,0.0167
2849.00,0.0165
2848.00,0.0162
2847.00,0.0160
2846.00,0.0158
2845.00,0.0155
2844.00,0.0153
2843.00,0.0151
2842.00,0.0150
2841.00,0.0148
2840.00,0.0147
2839.00,0.0145
2838.00,0.0144
2837.00,0.0143
2836.00,0.0142
2835.00,0.0141
2834.00,0.0140
2833.00,0.0139
2832.00,0.0139
2831.00,0.0138
2830.00,0.0138
2829.00,0.0138
2828.00,0.0138
2827.00,0.0138
2826.00,0.0138
2825.00,0.0138
2824.00,0.0138
2823.00,0.0138
2822.00,0.0138
2821.00,0.0138
2820.00,0.0138
2819.00,0.0138
2818.00,0.0137
2817.00,0.0137
2816.00,0.0137
2815.00,0.0137
2814.00,0.0136
2813.00,0.0136
2812.00,0.0135
2811.00,0.0135
2810.00,0.0135
2809.00,0.0135
2808.00,0.0135
2807.00,0.0134
2806.00,0.0134
2805.00,0.0134
2804.00,0.0134
2803.00,0.0133
2802.00,0.0133
2801.00,0.0133
2800.00,0.0132
2799.00,0.0132
2798.00,0.0131
2797.00,0.0131
2796.00,0.0131
2795.00,0.0130
2794.00,0.0130
2793.00,0.0129
2792.00,0.0129
2791.00,0.0128
2790.00,0.0128
2789.00,0.0128
2788.00,0.0128
2787.00,0.0127
2786.00,0.0127
2785.00,0.0127
2784.00,0.0126
2783.00,0.0126
2782.00,0.0126
2781.00,0.0125
2780.00,0.0125
2779.00,0.0124
2778.00,0.0124
2777.00,0.0123
2776.00,0.0123
2775.00,0.0122
2774.00,0.0122
2773.00,0.0122
2772.00,0.0121
2771.00,0.0121
2770.00,0.0121
2769.00,0.0120
2768.00,0.0120
2767.00,0.0119
2766.00,0.0119
2765.00,0.0119
2764.00,0.0118
2763.00,0.0118
2762.00,0.0117
2761.00,0.0117
2760.00,0.0117
2759.00,0.0116
2758.00,0.0116
2757.00,0.0116
2756.00,0.0115
2755.00,0.0115
2754.00,0.0114
2753.00,0.0114
2752.00,0.0114
2751.00,0.0113
2750.00,0.0113
2749.00,0.0113
2748.00,0.0113
2747.00,0.0112
2746.00,0.0112
2745.00,0.0112
2744.00,0.0111
2743.00,0.0111
2742.00,0.0111
2741.00,0.0111
2740.00,0.0110
2739.00,0.0110
2738.00,0.0110
2737.00,0.0109
2736.00,0.0109
2735.00,0.0109
2734.00,0.0109
2733.00,0.0108
2732.00,0.0108
2731.00,0.0108
2730.00,0.0107
2729.00,0.0107
2728.00,0.0106
2727.00,0.0106
2726.00,0.0106
2725.00,0.0105
2724.00,0.0105
2723.00,0.0105
2722.00,0.0105
2721.00,0.0104
2720.00,0.0104
2719.00,0.0104
2718.00,0.0103
2717.00,0.0103
2716.00,0.0103
2715.00,0.0102
2714.00,0.0102
2713.00,0.0102
2712.00,0.0102
2711.00,0.0101
2710.00,0.0101
2709.00,0.0101
2708.00,0.0101
2707.00,0.0101
2706.00,0.0100
2705.00,0.0100
2704.00,0.0099
2703.00,0.0099
2702.00,0.0099
2701.00,0.0098
2700.00,0.0098
2699.00,0.0098
2698.00,0.0098
2697.00,0.0098
2696.00,0.0098
2695.00,0.0098
2694.00,0.0097
2693.00,0.0097
2692.00,0.0097
2691.00,0.0097
2690.00,0.0097
2689.00,0.0097
2688.00,0.0097
2687.00,0.0097
2686.00,0.0097
2685.00,0.0096
2684.00,0.0096
2683.00,0.0096
2682.00,0.0096
2681.00,0.0095
2680.00,0.0095
2679.00,0.0095
2678.00,0.0095
2677.00,0.0095
2676.00,0.0095
2675.00,0.0095
2674.00,0.0095
2673.00,0.0095
2672.00,0.0095
2671.00,0.0094
2670.00,0.0095
2669.00,0.0095
2668.00,0.0095
2667.00,0.0095
2666.00,0.0095
2665.00,0.0095
2664.00,0.0095
2663.00,0.0096
2662.00,0.0096
2661.00,0.0096
2660.00,0.0097
2659.00,0.0097
2658.00,0.0097
2657.00,0.0097
2656.00,0.0097
2655.00,0.0097
2654.00,0.0097
2653.00,0.0097
2652.00,0.0097
2651.00,0.0097
2650.00,0.0097
2649.00,0.0097
2648.00,0.0097
2647.00,0.0097
2646.00,0.0097
2645.00,0.0097
2644.00,0.0096
2643.00,0.0096
2642.00,0.0096
2641.00,0.0096
2640.00,0.0096
2639.00,0.0096
2638.00,0.0096
2637.00,0.0096
2636.00,0.0096
2635.00,0.0096
2634.00,0.0095
2633.00,0.0096
2632.00,0.0096
2631.00,0.0096
2630.00,0.0095
2629.00,0.0095
2628.00,0.0095
2627.00,0.0095
2626.00,0.0094
2625.00,0.0094
2624.00,0.0094
2623.00,0.0094
2622.00,0.0094
2621.00,0.0094
2620.00,0.0094
2619.00,0.0094
2618.00,0.0093
2617.00,0.0093
2616.00,0.0093
2615.00,0.0093
2614.00,0.0092
2613.00,0.0092
2612.00,0.0092
2611.00,0.0092
2610.00,0.0092
2609.00,0.0092
2608.00,0.0092
2607.00,0.0091
2606.00,0.0091
2605.00,0.0091
2604.00,0.0090
2603.00,0.0090
2602.00,0.0089
2601.00,0.0089
2600.00,0.0089
2599.00,0.0089
2598.00,0.0089
2597.00,0.0089
2596.00,0.0088
2595.00,0.0088
2594.00,0.0089
2593.00,0.0089
2592.00,0.0088
2591.00,0.0088
2590.00,0.0087
2589.00,0.0087
2588.00,0.0087
2587.00,0.0088
2586.00,0.0087
2585.00,0.0087
2584.00,0.0087
2583.00,0.0086
2582.00,0.0086
2581.00,0.0086
2580.00,0.0086
2579.00,0.0086
2578.00,0.0086
2577.00,0.0086
2576.00,0.0086
2575.00,0.0085
2574.00,0.0085
2573.00,0.0084
2572.00,0.0084
2571.00,0.0083
2570.00,0.0083
2569.00,0.0084
2568.00,0.0084
2567.00,0.0084
2566.00,0.0084
2565.00,0.0083
2564.00,0.0083
2563.00,0.0083
2562.00,0.0083
2561.00,0.0082
2560.00,0.0082
2559.00,0.0082
2558.00,0.0081
2557.00,0.0081
2556.00,0.0081
2555.00,0.0081
2554.00,0.0081
2553.00,0.0081
2552.00,0.0080
2551.00,0.0080
2550.00,0.0080
2549.00,0.0080
2548.00,0.0080
2547.00,0.0080
2546.00,0.0079
2545.00,0.0079
2544.00,0.0079
2543.00,0.0079
2542.00,0.0078
2541.00,0.0079
2540.00,0.0079
2539.00,0.0079
2538.00,0.0079
2537.00,0.0079
2536.00,0.0078
2535.00,0.0078
2534.00,0.0078
2533.00,0.0078
2532.00,0.0078
2531.00,0.0078
2530.00,0.0078
2529.00,0.0078
2528.00,0.0077
2527.00,0.0077
2526.00,0.0077
2525.00,0.0077
2524.00,0.0077
2523.00,0.0077
2522.00,0.0077
2521.00,0.0077
2520.00,0.0077
2519.00,0.0078
2518.00,0.0077
2517.00,0.0077
2516.00,0.0077
2515.00,0.0076
2514.00,0.0076
2513.00,0.0076
2512.00,0.0076
2511.00,0.0076
2510.00,0.0076
2509.00,0.0076
2508.00,0.0075
2507.00,0.0075
2506.00,0.0075
2505.00,0.0075
2504.00,0.0075
2503.00,0.0075
2502.00,0.0075
2501.00,0.0075
2500.00,0.0075
2499.00,0.0074
2498.00,0.0074
2497.00,0.0074
2496.00,0.0074
2495.00,0.0074
2494.00,0.0074
2493.00,0.0074
2492.00,0.0073
2491.00,0.0073
2490.00,0.0073
2489.00,0.0073
2488.00,0.0073
2487.00,0.0073
2486.00,0.0073
2485.00,0.0072
2484.00,0.0072
2483.00,0.0072
2482.00,0.0072
2481.00,0.0072
2480.00,0.0072
2479.00,0.0071
2478.00,0.0071
2477.00,0.0071
2476.00,0.0071
2475.00,0.0071
2474.00,0.0071
2473.00,0.0071
2472.00,0.0071
2471.00,0.0070
2470.00,0.0070
2469.00,0.0070
2468.00,0.0070
2467.00,0.0070
2466.00,0.0069
2465.00,0.0070
2464.00,0.0070
2463.00,0.0070
2462.00,0.0070
2461.00,0.0070
2460.00,0.0070
2459.00,0.0070
2458.00,0.0070
2457.00,0.0070
2456.00,0.0070
2455.00,0.0069
2454.00,0.0069
2453.00,0.0069
2452.00,0.0068
2451.00,0.0068
2450.00,0.0067
2449.00,0.0067
2448.00,0.0067
2447.00,0.0066
2446.00,0.0066
2445.00,0.0066
2444.00,0.0066
2443.00,0.0066
2442.00,0.0066
2441.00,0.0066
2440.00,0.0066
2439.00,0.0065
2438.00,0.0065
2437.00,0.0065
2436.00,0.0064
2435.00,0.0064
2434.00,0.0064
2433.00,0.0064
2432.00,0.0064
2431.00,0.0064
2430.00,0.0064
2429.00,0.0064
2428.00,0.0063
2427.00,0.0063
2426.00,0.0062
2425.00,0.0062
2424.00,0.0062
2423.00,0.0062
2422.00,0.0062
2421.00,0.0062
2420.00,0.0062
2419.00,0.0062
2418.00,0.0062
2417.00,0.0062
2416.00,0.0062
2415.00,0.0061
2414.00,0.0061
2413.00,0.0061
2412.00,0.0061
2411.00,0.0061
2410.00,0.0061
2409.00,0.0061
2408.00,0.0060
2407.00,0.0059
2406.00,0.0059
2405.00,0.0059
2404.00,0.0059
2403.00,0.0059
2402.00,0.0059
2401.00,0.0059
2400.00,0.0059
2399.00,0.0059
2398.00,0.0059
2397.00,0.0059
2396.00,0.0059
2395.00,0.0059
2394.00,0.0059
2393.00,0.0059
2392.00,0.0059
2391.00,0.0059
2390.00,0.0059
2389.00,0.0058
2388.00,0.0058
2387.00,0.0057
2386.00,0.0056
2385.00,0.0056
2384.00,0.0056
2383.00,0.0055
2382.00,0.0055
2381.00,0.0055
2380.00,0.0055
2379.00,0.0055
2378.00,0.0055
2377.00,0.0054
2376.00,0.0054
2375.00,0.0054
2374.00,0.0054
2373.00,0.0054
2372.00,0.0054
2371.00,0.0054
2370.00,0.0054
2369.00,0.0054
2368.00,0.0054
2367.00,0.0053
2366.00,0.0053
2365.00,0.0054
2364.00,0.0054
2363.00,0.0054
2362.00,0.0054
2361.00,0.0053
2360.00,0.0053
2359.00,0.0053
2358.00,0.0053
2357.00,0.0054
2356.00,0.0054
2355.00,0.0054
2354.00,0.0054
2353.00,0.0054
2352.00,0.0054
2351.00,0.0054
2350.00,0.0054
2349.00,0.0055
2348.00,0.0055
2347.00,0.0057
2346.00,0.0057
2345.00,0.0057
2344.00,0.0057
2343.00,0.0056
2342.00,0.0055
2341.00,0.0056
2340.00,0.0056
2339.00,0.0056
2338.00,0.0057
2337.00,0.0057
2336.00,0.0057
2335.00,0.0056
2334.00,0.0056
2333.00,0.0056
2332.00,0.0056
2331.00,0.0056
2330.00,0.0056
2329.00,0.0058
2328.00,0.0061
2327.00,0.0064
2326.00,0.0067
2325.00,0.0068
2324.00,0.0068
2323.00,0.0066
2322.00,0.0065
2321.00,0.0063
2320.00,0.0062
2319.00,0.0061
2318.00,0.0059
2317.00,0.0058
2316.00,0.0058
2315.00,0.0058
2314.00,0.0058
2313.00,0.0057
2312.00,0.0057
2311.00,0.0057
2310.00,0.0057
2309.00,0.0057
2308.00,0.0058
2307.00,0.0058
2306.00,0.0058
2305.00,0.0059
2304.00,0.0059
2303.00,0.0060
2302.00,0.0060
2301.00,0.0060
2300.00,0.0061
2299.00,0.0061
2298.00,0.0061
2297.00,0.0061
2296.00,0.0062
2295.00,0.0062
2294.00,0.0063
2293.00,0.0064
2292.00,0.0065
2291.00,0.0066
2290.00,0.0066
2289.00,0.0067
2288.00,0.0067
2287.00,0.0067
2286.00,0.0067
2285.00,0.0067
2284.00,0.0066
2283.00,0.0066
2282.00,0.0065
2281.00,0.0064
2280.00,0.0064
2279.00,0.0064
2278.00,0.0064
2277.00,0.0064
2276.00,0.0063
2275.00,0.0063
2274.00,0.0063
2273.00,0.0063
2272.00,0.0063
2271.00,0.0062
2270.00,0.0061
2269.00,0.0061
2268.00,0.0060
2267.00,0.0060
2266.00,0.0060
2265.00,0.0059
2264.00,0.0059
2263.00,0.0059
2262.00,0.0059
2261.00,0.0060
2260.00,0.0061
2259.00,0.0061
2258.00,0.0060
2257.00,0.0059
2256.00,0.0058
2255.00,0.0057
2254.00,0.0056
2253.00,0.0056
2252.00,0.0057
2251.00,0.0057
2250.00,0.0058
2249.00,0.0058
2248.00,0.0058
2247.00,0.0058
2246.00,0.0058
2245.00,0.0059
2244.00,0.0059
2243.00,0.0059
2242.00,0.0059
2241.00,0.0059
2240.00,0.0058
2239.00,0.0058
2238.00,0.0057
2237.00,0.0057
2236.00,0.0057
2235.00,0.0058
2234.00,0.0058
2233.00,0.0058
2232.00,0.0059
2231.00,0.0059
2230.00,0.0059
2229.00,0.0059
2228.00,0.0059
2227.00,0.0059
2226.00,0.0059
2225.00,0.0059
2224.00,0.0059
2223.00,0.0058
2222.00,0.0057
2221.00,0.0056
2220.00,0.0056
2219.00,0.0056
2218.00,0.0056
2217.00,0.0056
2216.00,0.0056
2215.00,0.0057
2214.00,0.0057
2213.00,0.0058
2212.00,0.0059
2211.00,0.0059
2210.00,0.0058
2209.00,0.0058
2208.00,0.0058
2207.00,0.0058
2206.00,0.0058
2205.00,0.0059
2204.00,0.0059
2203.00,0.0059
2202.00,0.0058
2201.00,0.0058
2200.00,0.0057
2199.00,0.0057
2198.00,0.0056
2197.00,0.0056
2196.00,0.0057
2195.00,0.0058
2194.00,0.0060
2193.00,0.0061
2192.00,0.0061
2191.00,0.0061
2190.00,0.0061
2189.00,0.0061
2188.00,0.0061
2187.00,0.0061
2186.00,0.0059
2185.00,0.0057
2184.00,0.0055
2183.00,0.0053
2182.00,0.0052
2181.00,0.0052
2180.00,0.0054
2179.00,0.0056
2178.00,0.0056
2177.00,0.0055
2176.00,0.0053
2175.00,0.0052
2174.00,0.0053
2173.00,0.0054
2172.00,0.0056
2171.00,0.0057
2170.00,0.0059
2169.00,0.0061
2168.00,0.0062
2167.00,0.0062
2166.00,0.0062
2165.00,0.0064
2164.00,0.0066
2163.00,0.0067
2162.00,0.0063
2161.00,0.0053
2160.00,0.0040
2159.00,0.0029
2158.00,0.0024
2157.00,0.0025
2156.00,0.0028
2155.00,0.0031
2154.00,0.0034
2153.00,0.0036
2152.00,0.0037
2151.00,0.0038
2150.00,0.0039
2149.00,0.0040
2148.00,0.0041
2147.00,0.0041
2146.00,0.0041
2145.00,0.0041
2144.00,0.0041
2143.00,0.0040
2142.00,0.0041
2141.00,0.0041
2140.00,0.0042
2139.00,0.0042
2138.00,0.0042
2137.00,0.0041
2136.00,0.0040
2135.00,0.0039
2134.00,0.0038
2133.00,0.0039
2132.00,0.0041
2131.00,0.0042
2130.00,0.0043
2129.00,0.0044
2128.00,0.0045
2127.00,0.0046
2126.00,0.0046
2125.00,0.0047
2124.00,0.0047
2123.00,0.0048
2122.00,0.0049
2121.00,0.0051
2120.00,0.0052
2119.00,0.0054
2118.00,0.0055
2117.00,0.0055
2116.00,0.0056
2115.00,0.0056
2114.00,0.0056
2113.00,0.0057
2112.00,0.0057
2111.00,0.0058
2110.00,0.0058
2109.00,0.0057
2108.00,0.0057
2107.00,0.0057
2106.00,0.0057
2105.00,0.0057
2104.00,0.0057
2103.00,0.0058
2102.00,0.0058
2101.00,0.0058
2100.00,0.0057
2099.00,0.0057
2098.00,0.0055
2097.00,0.0054
2096.00,0.0052
2095.00,0.0051
2094.00,0.0051
2093.00,0.0052
2092.00,0.0053
2091.00,0.0054
2090.00,0.0055
2089.00,0.0055
2088.00,0.0055
2087.00,0.0056
2086.00,0.0056
2085.00,0.0057
2084.00,0.0058
2083.00,0.0058
2082.00,0.0059
2081.00,0.0059
2080.00,0.0059
2079.00,0.0059
2078.00,0.0059
2077.00,0.0060
2076.00,0.0060
2075.00,0.0060
2074.00,0.0059
2073.00,0.0058
2072.00,0.0057
2071.00,0.0056
2070.00,0.0056
2069.00,0.0056
2068.00,0.0056
2067.00,0.0057
2066.00,0.0057
2065.00,0.0056
2064.00,0.0056
2063.00,0.0056
2062.00,0.0056
2061.00,0.0056
2060.00,0.0056
2059.00,0.0056
2058.00,0.0057
2057.00,0.0057
2056.00,0.0057
2055.00,0.0057
2054.00,0.0059
2053.00,0.0061
2052.00,0.0063
2051.00,0.0063
2050.00,0.0061
2049.00,0.0058
2048.00,0.0055
2047.00,0.0054
2046.00,0.0053
2045.00,0.0054
2044.00,0.0055
2043.00,0.0056
2042.00,0.0056
2041.00,0.0056
2040.00,0.0057
2039.00,0.0058
2038.00,0.0058
2037.00,0.0057
2036.00,0.0056
2035.00,0.0055
2034.00,0.0054
2033.00,0.0054
2032.00,0.0054
2031.00,0.0053
2030.00,0.0052
2029.00,0.0051
2028.00,0.0051
2027.00,0.0050
2026.00,0.0049
2025.00,0.0048
2024.00,0.0048
2023.00,0.0047
2022.00,0.0047
2021.00,0.0047
2020.00,0.0047
2019.00,0.0048
2018.00,0.0048
2017.00,0.0049
2016.00,0.0049
2015.00,0.0049
2014.00,0.0049
2013.00,0.0049
2012.00,0.0048
2011.00,0.0048
2010.00,0.0047
2009.00,0.0046
2008.00,0.0045
2007.00,0.0044
2006.00,0.0044
2005.00,0.0046
2004.00,0.0047
2003.00,0.0047
2002.00,0.0047
2001.00,0.0047
2000.00,0.0048
1999.00,0.0049
1998.00,0.0050
1997.00,0.0051
1996.00,0.0052
1995.00,0.0052
1994.00,0.0052
1993.00,0.0052
1992.00,0.0052
1991.00,0.0052
1990.00,0.0052
1989.00,0.0053
1988.00,0.0054
1987.00,0.0055
1986.00,0.0055
1985.00,0.0057
1984.00,0.0058
1983.00,0.0060
1982.00,0.0062
1981.00,0.0063
1980.00,0.0061
1979.00,0.0056
1978.00,0.0051
1977.00,0.0047
1976.00,0.0045
1975.00,0.0044
1974.00,0.0043
1973.00,0.0042
1972.00,0.0042
1971.00,0.0042
1970.00,0.0043
1969.00,0.0043
1968.00,0.0043
1967.00,0.0042
1966.00,0.0042
1965.00,0.0042
1964.00,0.0043
1963.00,0.0044
1962.00,0.0043
1961.00,0.0043
1960.00,0.0042
1959.00,0.0042
1958.00,0.0043
1957.00,0.0044
1956.00,0.0045
1955.00,0.0045
1954.00,0.0044
1953.00,0.0044
1952.00,0.0045
1951.00,0.0045
1950.00,0.0045
1949.00,0.0045
1948.00,0.0045
1947.00,0.0046
1946.00,0.0047
1945.00,0.0047
1944.00,0.0047
1943.00,0.0046
1942.00,0.0045
1941.00,0.0045
1940.00,0.0045
1939.00,0.0045
1938.00,0.0046
1937.00,0.0047
1936.00,0.0047
1935.00,0.0048
1934.00,0.0048
1933.00,0.0047
1932.00,0.0047
1931.00,0.0047
1930.00,0.0047
1929.00,0.0047
1928.00,0.0048
1927.00,0.0048
1926.00,0.0048
1925.00,0.0048
1924.00,0.0049
1923.00,0.0049
1922.00,0.0048
1921.00,0.0048
1920.00,0.0049
1919.00,0.0048
1918.00,0.0047
1917.00,0.0046
1916.00,0.0046
1915.00,0.0047
1914.00,0.0048
1913.00,0.0049
1912.00,0.0050
1911.00,0.0051
1910.00,0.0051
1909.00,0.0051
1908.00,0.0051
1907.00,0.0051
1906.00,0.0050
1905.00,0.0050
1904.00,0.0050
1903.00,0.0050
1902.00,0.0050
1901.00,0.0050
1900.00,0.0050
1899.00,0.0050
1898.00,0.0050
1897.00,0.0050
1896.00,0.0051
1895.00,0.0051
1894.00,0.0051
1893.00,0.0051
1892.00,0.0051
1891.00,0.0051
1890.00,0.0050
1889.00,0.0050
1888.00,0.0049
1887.00,0.0049
1886.00,0.0050
1885.00,0.0051
1884.00,0.0051
1883.00,0.0050
1882.00,0.0050
1881.00,0.0050
1880.00,0.0050
1879.00,0.0050
1878.00,0.0050
1877.00,0.0050
1876.00,0.0050
1875.00,0.0050
1874.00,0.0050
1873.00,0.0051
1872.00,0.0052
1871.00,0.0052
1870.00,0.0052
1869.00,0.0051
1868.00,0.0050
1867.00,0.0049
1866.00,0.0048
1865.00,0.0049
1864.00,0.0049
1863.00,0.0049
1862.00,0.0049
1861.00,0.0049
1860.00,0.0049
1859.00,0.0049
1858.00,0.0049
1857.00,0.0049
1856.00,0.0050
1855.00,0.0050
1854.00,0.0049
1853.00,0.0049
1852.00,0.0049
1851.00,0.0049
1850.00,0.0049
1849.00,0.0050
1848.00,0.0051
1847.00,0.0052
1846.00,0.0052
1845.00,0.0049
1844.00,0.0046
1843.00,0.0043
1842.00,0.0043
1841.00,0.0046
1840.00,0.0049
1839.00,0.0051
1838.00,0.0051
1837.00,0.0051
1836.00,0.0051
1835.00,0.0050
1834.00,0.0050
1833.00,0.0051
1832.00,0.0052
1831.00,0.0053
1830.00,0.0052
1829.00,0.0051
1828.00,0.0050
1827.00,0.0050
1826.00,0.0050
1825.00,0.0050
1824.00,0.0049
1823.00,0.0048
1822.00,0.0049
1821.00,0.0050
1820.00,0.0049
1819.00,0.0048
1818.00,0.0047
1817.00,0.0047
1816.00,0.0048
1815.00,0.0049
1814.00,0.0050
1813.00,0.0052
1812.00,0.0053
1811.00,0.0053
1810.00,0.0053
1809.00,0.0052
1808.00,0.0052
1807.00,0.0052
1806.00,0.0053
1805.00,0.0053
1804.00,0.0054
1803.00,0.0054
1802.00,0.0053
1801.00,0.0053
1800.00,0.0053
1799.00,0.0053
1798.00,0.0053
1797.00,0.0054
1796.00,0.0055
1795.00,0.0057
1794.00,0.0057
1793.00,0.0055
1792.00,0.0052
1791.00,0.0049
1790.00,0.0048
1789.00,0.0049
1788.00,0.0052
1787.00,0.0053
1786.00,0.0053
1785.00,0.0052
1784.00,0.0052
1783.00,0.0053
1782.00,0.0055
1781.00,0.0056
1780.00,0.0056
1779.00,0.0056
1778.00,0.0056
1777.00,0.0057
1776.00,0.0059
1775.00,0.0062
1774.00,0.0063
1773.00,0.0062
1772.00,0.0059
1771.00,0.0056
1770.00,0.0054
1769.00,0.0054
1768.00,0.0054
1767.00,0.0055
1766.00,0.0058
1765.00,0.0062
1764.00,0.0066
1763.00,0.0067
1762.00,0.0066
1761.00,0.0066
1760.00,0.0067
1759.00,0.0070
1758.00,0.0073
1757.00,0.0075
1756.00,0.0076
1755.00,0.0079
1754.00,0.0083
1753.00,0.0086
1752.00,0.0088
1751.00,0.0090
1750.00,0.0093
1749.00,0.0099
1748.00,0.0105
1747.00,0.0110
1746.00,0.0114
1745.00,0.0119
1744.00,0.0125
1743.00,0.0130
1742.00,0.0135
1741.00,0.0140
1740.00,0.0145
1739.00,0.0151
1738.00,0.0157
1737.00,0.0164
1736.00,0.0169
1735.00,0.0173
1734.00,0.0175
1733.00,0.0178
1732.00,0.0184
1731.00,0.0193
1730.00,0.0200
1729.00,0.0205
1728.00,0.0208
1727.00,0.0211
1726.00,0.0213
1725.00,0.0215
1724.00,0.0217
1723.00,0.0218
1722.00,0.0219
1721.00,0.0220
1720.00,0.0222
1719.00,0.0222
1718.00,0.0221
1717.00,0.0219
1716.00,0.0217
1715.00,0.0215
1714.00,0.0215
1713.00,0.0216
1712.00,0.0218
1711.00,0.0220
1710.00,0.0222
1709.00,0.0224
1708.00,0.0228
1707.00,0.0232
1706.00,0.0237
1705.00,0.0243
1704.00,0.0248
1703.00,0.0253
1702.00,0.0257
1701.00,0.0263
1700.00,0.0275
1699.00,0.0289
1698.00,0.0303
1697.00,0.0316
1696.00,0.0326
1695.00,0.0331
1694.00,0.0337
1693.00,0.0347
1692.00,0.0358
1691.00,0.0368
1690.00,0.0378
1689.00,0.0388
1688.00,0.0397
1687.00,0.0405
1686.00,0.0412
1685.00,0.0424
1684.00,0.0441
1683.00,0.0453
1682.00,0.0462
1681.00,0.0474
1680.00,0.0486
1679.00,0.0496
1678.00,0.0504
1677.00,0.0512
1676.00,0.0522
1675.00,0.0536
1674.00,0.0550
1673.00,0.0562
1672.00,0.0574
1671.00,0.0586
1670.00,0.0602
1669.00,0.0618
1668.00,0.0632
1667.00,0.0643
1666.00,0.0652
1665.00,0.0662
1664.00,0.0676
1663.00,0.0693
1662.00,0.0711
1661.00,0.0727
1660.00,0.0740
1659.00,0.0753
1658.00,0.0764
1657.00,0.0772
1656.00,0.0775
1655.00,0.0778
1654.00,0.0795
1653.00,0.0828
1652.00,0.0849
1651.00,0.0855
1650.00,0.0855
1649.00,0.0855
1648.00,0.0859
1647.00,0.0870
1646.00,0.0877
1645.00,0.0879
1644.00,0.0878
1643.00,0.0876
1642.00,0.0875
1641.00,0.0874
1640.00,0.0874
1639.00,0.0872
1638.00,0.0870
1637.00,0.0874
1636.00,0.0886
1635.00,0.0900
1634.00,0.0908
1633.00,0.0910
1632.00,0.0911
1631.00,0.0912
1630.00,0.0914
1629.00,0.0920
1628.00,0.0928
1627.00,0.0933
1626.00,0.0933
1625.00,0.0931
1624.00,0.0931
1623.00,0.0931
1622.00,0.0928
1621.00,0.0917
1620.00,0.0902
1619.00,0.0885
1618.00,0.0869
1617.00,0.0855
1616.00,0.0841
1615.00,0.0824
1614.00,0.0805
1613.00,0.0784
1612.00,0.0762
1611.00,0.0741
1610.00,0.0720
1609.00,0.0700
1608.00,0.0678
1607.00,0.0658
1606.00,0.0638
1605.00,0.0619
1604.00,0.0601
1603.00,0.0585
1602.00,0.0570
1601.00,0.0555
1600.00,0.0541
1599.00,0.0527
1598.00,0.0515
1597.00,0.0504
1596.00,0.0493
1595.00,0.0483
1594.00,0.0474
1593.00,0.0464
1592.00,0.0453
1591.00,0.0443
1590.00,0.0434
1589.00,0.0426
1588.00,0.0417
1587.00,0.0409
1586.00,0.0403
1585.00,0.0398
1584.00,0.0392
1583.00,0.0388
1582.00,0.0386
1581.00,0.0384
1580.00,0.0382
1579.00,0.0380
1578.00,0.0380
1577.00,0.0383
1576.00,0.0387
1575.00,0.0390
1574.00,0.0394
1573.00,0.0397
1572.00,0.0400
1571.00,0.0405
1570.00,0.0415
1569.00,0.0427
1568.00,0.0435
1567.00,0.0443
1566.00,0.0453
1565.00,0.0465
1564.00,0.0475
1563.00,0.0482
1562.00,0.0485
1561.00,0.0487
1560.00,0.0499
1559.00,0.0534
1558.00,0.0564
1557.00,0.0577
1556.00,0.0588
1555.00,0.0601
1554.00,0.0617
1553.00,0.0631
1552.00,0.0644
1551.00,0.0658
1550.00,0.0674
1549.00,0.0689
1548.00,0.0699
1547.00,0.0706
1546.00,0.0714
1545.00,0.0725
1544.00,0.0736
1543.00,0.0745
1542.00,0.0755
1541.00,0.0770
1540.00,0.0789
1539.00,0.0802
1538.00,0.0805
1537.00,0.0805
1536.00,0.0803
1535.00,0.0803
1534.00,0.0809
1533.00,0.0819
1532.00,0.0825
1531.00,0.0825
1530.00,0.0825
1529.00,0.0824
1528.00,0.0824
1527.00,0.0826
1526.00,0.0828
1525.00,0.0828
1524.00,0.0827
1523.00,0.0826
1522.00,0.0830
1521.00,0.0837
1520.00,0.0841
1519.00,0.0843
1518.00,0.0846
1517.00,0.0851
1516.00,0.0853
1515.00,0.0850
1514.00,0.0841
1513.00,0.0830
1512.00,0.0818
1511.00,0.0806
1510.00,0.0792
1509.00,0.0778
1508.00,0.0766
1507.00,0.0758
1506.00,0.0744
1505.00,0.0726
1504.00,0.0711
1503.00,0.0697
1502.00,0.0682
1501.00,0.0665
1500.00,0.0649
1499.00,0.0634
1498.00,0.0619
1497.00,0.0603
1496.00,0.0587
1495.00,0.0571
1494.00,0.0557
1493.00,0.0542
1492.00,0.0526
1491.00,0.0511
1490.00,0.0498
1489.00,0.0486
1488.00,0.0474
1487.00,0.0462
1486.00,0.0450
1485.00,0.0440
1484.00,0.0431
1483.00,0.0423
1482.00,0.0416
1481.00,0.0410
1480.00,0.0404
1479.00,0.0400
1478.00,0.0396
1477.00,0.0394
1476.00,0.0394
1475.00,0.0395
1474.00,0.0397
1473.00,0.0402
1472.00,0.0408
1471.00,0.0413
1470.00,0.0418
1469.00,0.0421
1468.00,0.0423
1467.00,0.0424
1466.00,0.0424
1465.00,0.0425
1464.00,0.0427
1463.00,0.0429
1462.00,0.0430
1461.00,0.0431
1460.00,0.0432
1459.00,0.0433
1458.00,0.0436
1457.00,0.0441
1456.00,0.0445
1455.00,0.0448
1454.00,0.0452
1453.00,0.0454
1452.00,0.0454
1451.00,0.0453
1450.00,0.0451
1449.00,0.0449
1448.00,0.0447
1447.00,0.0446
1446.00,0.0443
1445.00,0.0440
1444.00,0.0437
1443.00,0.0433
1442.00,0.0429
1441.00,0.0425
1440.00,0.0421
1439.00,0.0414
1438.00,0.0407
1437.00,0.0401
1436.00,0.0398
1435.00,0.0398
1434.00,0.0397
1433.00,0.0394
1432.00,0.0391
1431.00,0.0389
1430.00,0.0387
1429.00,0.0385
1428.00,0.0383
1427.00,0.0383
1426.00,0.0382
1425.00,0.0383
1424.00,0.0385
1423.00,0.0387
1422.00,0.0388
1421.00,0.0386
1420.00,0.0385
1419.00,0.0389
1418.00,0.0394
1417.00,0.0398
1416.00,0.0402
1415.00,0.0405
1414.00,0.0408
1413.00,0.0409
1412.00,0.0410
1411.00,0.0412
1410.00,0.0412
1409.00,0.0412
1408.00,0.0411
1407.00,0.0411
1406.00,0.0410
1405.00,0.0409
1404.00,0.0408
1403.00,0.0406
1402.00,0.0405
1401.00,0.0402
1400.00,0.0400
1399.00,0.0399
1398.00,0.0399
1397.00,0.0398
1396.00,0.0398
1395.00,0.0398
1394.00,0.0399
1393.00,0.0401
1392.00,0.0403
1391.00,0.0405
1390.00,0.0406
1389.00,0.0406
1388.00,0.0406
1387.00,0.0406
1386.00,0.0407
1385.00,0.0406
1384.00,0.0404
1383.00,0.0402
1382.00,0.0399
1381.00,0.0395
1380.00,0.0391
1379.00,0.0387
1378.00,0.0384
1377.00,0.0381
1376.00,0.0379
1375.00,0.0379
1374.00,0.0380
1373.00,0.0380
1372.00,0.0380
1371.00,0.0380
1370.00,0.0380
1369.00,0.0379
1368.00,0.0377
1367.00,0.0374
1366.00,0.0371
1365.00,0.0367
1364.00,0.0365
1363.00,0.0363
1362.00,0.0362
1361.00,0.0361
1360.00,0.0360
1359.00,0.0360
1358.00,0.0360
1357.00,0.0359
1356.00,0.0359
1355.00,0.0358
1354.00,0.0358
1353.00,0.0357
1352.00,0.0356
1351.00,0.0355
1350.00,0.0356
1349.00,0.0356
1348.00,0.0357
1347.00,0.0358
1346.00,0.0359
1345.00,0.0360
1344.00,0.0361
1343.00,0.0361
1342.00,0.0362
1341.00,0.0362
1340.00,0.0362
1339.00,0.0362
1338.00,0.0361
1337.00,0.0360
1336.00,0.0359
1335.00,0.0358
1334.00,0.0358
1333.00,0.0357
1332.00,0.0357
1331.00,0.0357
1330.00,0.0358
1329.00,0.0358
1328.00,0.0358
1327.00,0.0357
1326.00,0.0357
1325.00,0.0356
1324.00,0.0354
1323.00,0.0353
1322.00,0.0352
1321.00,0.0350
1320.00,0.0349
1319.00,0.0348
1318.00,0.0347
1317.00,0.0347
1316.00,0.0348
1315.00,0.0350
1314.00,0.0353
1313.00,0.0356
1312.00,0.0359
1311.00,0.0361
1310.00,0.0363
1309.00,0.0364
1308.00,0.0365
1307.00,0.0365
1306.00,0.0365
1305.00,0.0366
1304.00,0.0366
1303.00,0.0368
1302.00,0.0369
1301.00,0.0371
1300.00,0.0373
1299.00,0.0374
1298.00,0.0376
1297.00,0.0377
1296.00,0.0379
1295.00,0.0380
1294.00,0.0381
1293.00,0.0382
1292.00,0.0383
1291.00,0.0384
1290.00,0.0384
1289.00,0.0385
1288.00,0.0385
1287.00,0.0385
1286.00,0.0385
1285.00,0.0385
1284.00,0.0385
1283.00,0.0384
1282.00,0.0384
1281.00,0.0383
1280.00,0.0383
1279.00,0.0384
1278.00,0.0385
1277.00,0.0388
1276.00,0.0391
1275.00,0.0394
1274.00,0.0398
1273.00,0.0402
1272.00,0.0405
1271.00,0.0409
1270.00,0.0412
1269.00,0.0416
1268.00,0.0419
1267.00,0.0423
1266.00,0.0426
1265.00,0.0430
1264.00,0.0433
1263.00,0.0437
1262.00,0.0440
1261.00,0.0443
1260.00,0.0445
1259.00,0.0448
1258.00,0.0450
1257.00,0.0451
1256.00,0.0452
1255.00,0.0453
1254.00,0.0454
1253.00,0.0455
1252.00,0.0456
1251.00,0.0458
1250.00,0.0460
1249.00,0.0462
1248.00,0.0464
1247.00,0.0465
1246.00,0.0466
1245.00,0.0466
1244.00,0.0467
1243.00,0.0468
1242.00,0.0471
1241.00,0.0474
1240.00,0.0479
1239.00,0.0484
1238.00,0.0488
1237.00,0.0493
1236.00,0.0497
1235.00,0.0500
1234.00,0.0503
1233.00,0.0505
1232.00,0.0506
1231.00,0.0505
1230.00,0.0504
1229.00,0.0503
1228.00,0.0502
1227.00,0.0500
1226.00,0.0500
1225.00,0.0499
1224.00,0.0499
1223.00,0.0498
1222.00,0.0496
1221.00,0.0494
1220.00,0.0491
1219.00,0.0488
1218.00,0.0486
1217.00,0.0483
1216.00,0.0480
1215.00,0.0477
1214.00,0.0475
1213.00,0.0472
1212.00,0.0468
1211.00,0.0465
1210.00,0.0461
1209.00,0.0456
1208.00,0.0451
1207.00,0.0445
1206.00,0.0440
1205.00,0.0435
1204.00,0.0432
1203.00,0.0431
1202.00,0.0433
1201.00,0.0435
1200.00,0.0438
1199.00,0.0441
1198.00,0.0444
1197.00,0.0447
1196.00,0.0449
1195.00,0.0451
1194.00,0.0453
1193.00,0.0454
1192.00,0.0455
1191.00,0.0456
1190.00,0.0458
1189.00,0.0459
1188.00,0.0461
1187.00,0.0462
1186.00,0.0464
1185.00,0.0466
1184.00,0.0467
1183.00,0.0469
1182.00,0.0471
1181.00,0.0473
1180.00,0.0475
1179.00,0.0477
1178.00,0.0479
1177.00,0.0481
1176.00,0.0482
1175.00,0.0483
1174.00,0.0484
1173.00,0.0484
1172.00,0.0483
1171.00,0.0483
1170.00,0.0483
1169.00,0.0484
1168.00,0.0485
1167.00,0.0486
1166.00,0.0488
1165.00,0.0490
1164.00,0.0491
1163.00,0.0492
1162.00,0.0493
1161.00,0.0493
1160.00,0.0493
1159.00,0.0492
1158.00,0.0491
1157.00,0.0490
1156.00,0.0487
1155.00,0.0484
1154.00,0.0481
1153.00,0.0477
1152.00,0.0471
1151.00,0.0465
1150.00,0.0457
1149.00,0.0450
1148.00,0.0444
1147.00,0.0440
1146.00,0.0439
1145.00,0.0440
1144.00,0.0441
1143.00,0.0442
1142.00,0.0443
1141.00,0.0442
1140.00,0.0441
1139.00,0.0440
1138.00,0.0438
1137.00,0.0437
1136.00,0.0436
1135.00,0.0435
1134.00,0.0435
1133.00,0.0435
1132.00,0.0435
1131.00,0.0436
1130.00,0.0436
1129.00,0.0437
1128.00,0.0437
1127.00,0.0437
1126.00,0.0437
1125.00,0.0437
1124.00,0.0437
1123.00,0.0437
1122.00,0.0436
1121.00,0.0436
1120.00,0.0435
1119.00,0.0435
1118.00,0.0434
1117.00,0.0434
1116.00,0.0434
1115.00,0.0433
1114.00,0.0433
1113.00,0.0433
1112.00,0.0433
1111.00,0.0433
1110.00,0.0434
1109.00,0.0434
1108.00,0.0433
1107.00,0.0433
1106.00,0.0433
1105.00,0.0433
1104.00,0.0432
1103.00,0.0432
1102.00,0.0431
1101.00,0.0430
1100.00,0.0430
1099.00,0.0429
1098.00,0.0430
1097.00,0.0431
1096.00,0.0432
1095.00,0.0433
1094.00,0.0434
1093.00,0.0435
1092.00,0.0435
1091.00,0.0436
1090.00,0.0437
1089.00,0.0439
1088.00,0.0440
1087.00,0.0442
1086.00,0.0444
1085.00,0.0446
1084.00,0.0447
1083.00,0.0449
1082.00,0.0450
1081.00,0.0452
1080.00,0.0453
1079.00,0.0454
1078.00,0.0456
1077.00,0.0457
1076.00,0.0458
1075.00,0.0458
1074.00,0.0458
1073.00,0.0458
1072.00,0.0457
1071.00,0.0457
1070.00,0.0457
1069.00,0.0456
1068.00,0.0455
1067.00,0.0454
1066.00,0.0454
1065.00,0.0454
1064.00,0.0453
1063.00,0.0451
1062.00,0.0450
1061.00,0.0449
1060.00,0.0447
1059.00,0.0444
1058.00,0.0442
1057.00,0.0439
1056.00,0.0435
1055.00,0.0431
1054.00,0.0428
1053.00,0.0425
1052.00,0.0423
1051.00,0.0424
1050.00,0.0427
1049.00,0.0429
1048.00,0.0432
1047.00,0.0433
1046.00,0.0433
1045.00,0.0432
1044.00,0.0429
1043.00,0.0427
1042.00,0.0424
1041.00,0.0422
1040.00,0.0418
1039.00,0.0415
1038.00,0.0411
1037.00,0.0407
1036.00,0.0403
1035.00,0.0399
1034.00,0.0396
1033.00,0.0394
1032.00,0.0392
1031.00,0.0391
1030.00,0.0391
1029.00,0.0392
1028.00,0.0393
1027.00,0.0395
1026.00,0.0397
1025.00,0.0399
1024.00,0.0400
1023.00,0.0400
1022.00,0.0401
1021.00,0.0401
1020.00,0.0400
1019.00,0.0398
1018.00,0.0397
1017.00,0.0395
1016.00,0.0393
1015.00,0.0392
1014.00,0.0391
1013.00,0.0389
1012.00,0.0386
1011.00,0.0382
1010.00,0.0379
1009.00,0.0375
1008.00,0.0372
1007.00,0.0369
1006.00,0.0366
1005.00,0.0364
1004.00,0.0362
1003.00,0.0359
1002.00,0.0357
1001.00,0.0353
1000.00,0.0348
999.00,0.0344
998.00,0.0341
997.00,0.0340
996.00,0.0339
995.00,0.0340
994.00,0.0340
993.00,0.0339
992.00,0.0337
991.00,0.0336
990.00,0.0334
989.00,0.0332
988.00,0.0330
987.00,0.0328
986.00,0.0326
985.00,0.0325
984.00,0.0323
983.00,0.0321
982.00,0.0321
981.00,0.0320
980.00,0.0319
979.00,0.0319
978.00,0.0318
977.00,0.0317
976.00,0.0315
975.00,0.0314
974.00,0.0313
973.00,0.0312
972.00,0.0310
971.00,0.0309
970.00,0.0308
969.00,0.0307
968.00,0.0305
967.00,0.0304
966.00,0.0304
965.00,0.0303
964.00,0.0301
963.00,0.0300
962.00,0.0299
961.00,0.0298
960.00,0.0297
959.00,0.0295
958.00,0.0295
957.00,0.0294
956.00,0.0293
955.00,0.0292
954.00,0.0292
953.00,0.0292
952.00,0.0292
951.00,0.0292
950.00,0.0293
949.00,0.0293
948.00,0.0293
947.00,0.0294
946.00,0.0295
945.00,0.0296
944.00,0.0296
943.00,0.0297
942.00,0.0298
941.00,0.0299
940.00,0.0300
939.00,0.0301
938.00,0.0302
937.00,0.0303
936.00,0.0304
935.00,0.0305
934.00,0.0307
933.00,0.0307
932.00,0.0308
931.00,0.0307
930.00,0.0307
929.00,0.0307
928.00,0.0306
927.00,0.0305
926.00,0.0304
925.00,0.0304
924.00,0.0303
923.00,0.0302
922.00,0.0302
921.00,0.0302
920.00,0.0301
919.00,0.0300
918.00,0.0299
917.00,0.0297
916.00,0.0296
915.00,0.0295
914.00,0.0294
913.00,0.0294
912.00,0.0293
911.00,0.0294
910.00,0.0295
909.00,0.0296
908.00,0.0297
907.00,0.0297
906.00,0.0296
905.00,0.0295
904.00,0.0293
903.00,0.0291
902.00,0.0289
901.00,0.0288
900.00,0.0288
899.00,0.0288
898.00,0.0289
897.00,0.0290
896.00,0.0289
895.00,0.0288
894.00,0.0285
893.00,0.0281
892.00,0.0275
891.00,0.0269
890.00,0.0264
889.00,0.0261
888.00,0.0260
887.00,0.0260
886.00,0.0260
885.00,0.0259
884.00,0.0259
883.00,0.0262
882.00,0.0266
881.00,0.0272
880.00,0.0275
879.00,0.0278
878.00,0.0280
877.00,0.0281
876.00,0.0281
875.00,0.0281
874.00,0.0281
873.00,0.0281
872.00,0.0281
871.00,0.0280
870.00,0.0280
869.00,0.0279
868.00,0.0278
867.00,0.0277
866.00,0.0276
865.00,0.0274
864.00,0.0271
863.00,0.0269
862.00,0.0267
861.00,0.0265
860.00,0.0265
859.00,0.0266
858.00,0.0268
857.00,0.0270
856.00,0.0272
855.00,0.0275
854.00,0.0278
853.00,0.0281
852.00,0.0283
851.00,0.0285
850.00,0.0287
849.00,0.0288
848.00,0.0289
847.00,0.0289
846.00,0.0290
845.00,0.0290
844.00,0.0291
843.00,0.0292
842.00,0.0293
841.00,0.0294
840.00,0.0294
839.00,0.0295
838.00,0.0296
837.00,0.0299
836.00,0.0303
835.00,0.0306
834.00,0.0311
833.00,0.0314
832.00,0.0317
831.00,0.0319
830.00,0.0321
829.00,0.0322
828.00,0.0322
827.00,0.0323
826.00,0.0324
825.00,0.0326
824.00,0.0328
823.00,0.0330
822.00,0.0332
821.00,0.0333
820.00,0.0333
819.00,0.0333
818.00,0.0334
817.00,0.0335
816.00,0.0335
815.00,0.0336
814.00,0.0338
813.00,0.0338
812.00,0.0339
811.00,0.0339
810.00,0.0340
809.00,0.0341
808.00,0.0340
807.00,0.0339
806.00,0.0337
805.00,0.0335
804.00,0.0333
803.00,0.0333
802.00,0.0334
801.00,0.0336
800.00,0.0337
799.00,0.0339
798.00,0.0340
797.00,0.0340
796.00,0.0341
795.00,0.0342
794.00,0.0344
793.00,0.0348
792.00,0.0351
791.00,0.0355
790.00,0.0360
789.00,0.0364
788.00,0.0367
787.00,0.0370
786.00,0.0373
785.00,0.0375
784.00,0.0377
783.00,0.0380
782.00,0.0382
781.00,0.0385
780.00,0.0386
779.00,0.0388
778.00,0.0389
777.00,0.0391
776.00,0.0392
775.00,0.0392
774.00,0.0393
773.00,0.0394
772.00,0.0395
771.00,0.0396
770.00,0.0397
769.00,0.0399
768.00,0.0401
767.00,0.0403
766.00,0.0405
765.00,0.0407
764.00,0.0409
763.00,0.0411
762.00,0.0414
761.00,0.0417
760.00,0.0418
759.00,0.0420
758.00,0.0423
757.00,0.0425
756.00,0.0427
755.00,0.0429
754.00,0.0432
753.00,0.0435
752.00,0.0438
751.00,0.0441
750.00,0.0445
749.00,0.0448
748.00,0.0450
747.00,0.0452
746.00,0.0454
745.00,0.0455
744.00,0.0456
743.00,0.0457
742.00,0.0458
741.00,0.0458
740.00,0.0458
739.00,0.0457
738.00,0.0457
737.00,0.0457
736.00,0.0457
735.00,0.0457
734.00,0.0457
733.00,0.0458
732.00,0.0460
731.00,0.0464
730.00,0.0469
729.00,0.0474
728.00,0.0478
727.00,0.0482
726.00,0.0487
725.00,0.0491
724.00,0.0495
723.00,0.0499
722.00,0.0504
721.00,0.0509
720.00,0.0512
719.00,0.0516
718.00,0.0519
717.00,0.0523
716.00,0.0527
715.00,0.0531
714.00,0.0536
713.00,0.0540
712.00,0.0544
711.00,0.0548
710.00,0.0553
709.00,0.0559
708.00,0.0565
707.00,0.0571
706.00,0.0577
705.00,0.0584
704.00,0.0589
703.00,0.0595
702.00,0.0600
701.00,0.0605
700.00,0.0608
699.00,0.0610
698.00,0.0612
697.00,0.0613
696.00,0.0613
695.00,0.0612
694.00,0.0612
693.00,0.0613
692.00,0.0612
691.00,0.0612
690.00,0.0613
689.00,0.0614
688.00,0.0615
687.00,0.0616
686.00,0.0618
685.00,0.0619
684.00,0.0619
683.00,0.0620
682.00,0.0621
681.00,0.0622
680.00,0.0624
679.00,0.0626
678.00,0.0628
677.00,0.0631
676.00,0.0632
675.00,0.0634
674.00,0.0636
673.00,0.0638
672.00,0.0638
671.00,0.0638
670.00,0.0640
669.00,0.0646
668.00,0.0656
667.00,0.0663
666.00,0.0665
665.00,0.0663
664.00,0.0661
663.00,0.0662
662.00,0.0664
661.00,0.0667
660.00,0.0668
659.00,0.0669
658.00,0.0670
657.00,0.0672
656.00,0.0673
655.00,0.0674
654.00,0.0677
653.00,0.0679
652.00,0.0680
651.00,0.0681
650.00,0.0682
649.00,0.0683
648.00,0.0684
647.00,0.0685
646.00,0.0688
645.00,0.0690
644.00,0.0691
643.00,0.0692
642.00,0.0694
641.00,0.0696
640.00,0.0697
639.00,0.0699
638.00,0.0702
637.00,0.0704
636.00,0.0705
635.00,0.0708
634.00,0.0711
633.00,0.0715
632.00,0.0718
631.00,0.0722
630.00,0.0727
629.00,0.0732
628.00,0.0736
627.00,0.0740
626.00,0.0743
625.00,0.0746
624.00,0.0747
623.00,0.0749
622.00,0.0750
621.00,0.0752
620.00,0.0752
619.00,0.0753
618.00,0.0754
617.00,0.0755
616.00,0.0754
615.00,0.0755
614.00,0.0756
613.00,0.0757
612.00,0.0758
611.00,0.0758
610.00,0.0760
609.00,0.0760
608.00,0.0760
607.00,0.0760
606.00,0.0762
605.00,0.0764
604.00,0.0765
603.00,0.0765
602.00,0.0767
601.00,0.0768
600.00,0.0768
599.00,0.0768
598.00,0.0769
597.00,0.0770
596.00,0.0769
595.00,0.0770
594.00,0.0771
593.00,0.0773
592.00,0.0775
591.00,0.0777
590.00,0.0780
589.00,0.0783
588.00,0.0784
587.00,0.0785
586.00,0.0786
585.00,0.0787
584.00,0.0787
583.00,0.0788
582.00,0.0789
581.00,0.0789
580.00,0.0788
579.00,0.0788
578.00,0.0789
577.00,0.0791
576.00,0.0794
575.00,0.0798
574.00,0.0805
573.00,0.0810
572.00,0.0812
571.00,0.0812
570.00,0.0814
569.00,0.0815
568.00,0.0814
567.00,0.0815
566.00,0.0818
565.00,0.0821
564.00,0.0823
563.00,0.0824
562.00,0.0827
561.00,0.0828
560.00,0.0829
559.00,0.0829
558.00,0.0832
557.00,0.0833
556.00,0.0832
555.00,0.0830
554.00,0.0829
553.00,0.0828
552.00,0.0826
551.00,0.0826
550.00,0.0828
549.00,0.0832
548.00,0.0835
547.00,0.0839
546.00,0.0843
545.00,0.0845
544.00,0.0845
543.00,0.0846
542.00,0.0849
541.00,0.0851
540.00,0.0852
539.00,0.0852
538.00,0.0854
537.00,0.0854
536.00,0.0852
535.00,0.0850
534.00,0.0850
533.00,0.0852
532.00,0.0853
531.00,0.0855
530.00,0.0858
529.00,0.0859
528.00,0.0857
527.00,0.0854
526.00,0.0854
525.00,0.0854
524.00,0.0855
523.00,0.0857
522.00,0.0860
521.00,0.0862
520.00,0.0863
519.00,0.0864
518.00,0.0865
517.00,0.0866
516.00,0.0866
515.00,0.0867
514.00,0.0871
513.00,0.0873
512.00,0.0871
511.00,0.0868
510.00,0.0867
509.00,0.0865
508.00,0.0862
507.00,0.0860
506.00,0.0861
505.00,0.0860
504.00,0.0857
503.00,0.0855
502.00,0.0857
501.00,0.0860
500.00,0.0859
499.00,0.0857
498.00,0.0858
497.00,0.0859
496.00,0.0858
495.00,0.0857
494.00,0.0856
493.00,0.0854
492.00,0.0850
491.00,0.0847
490.00,0.0847
489.00,0.0846
488.00,0.0844
487.00,0.0842
486.00,0.0843
485.00,0.0844
484.00,0.0843
483.00,0.0842
482.00,0.0845
481.00,0.0849
480.00,0.0848
479.00,0.0847
478.00,0.0849
477.00,0.0851
476.00,0.0849
475.00,0.0847
474.00,0.0847
473.00,0.0847
472.00,0.0845
471.00,0.0845
470.00,0.0849
469.00,0.0853
468.00,0.0855
467.00,0.0857
466.00,0.0860
465.00,0.0861
464.00,0.0857
463.00,0.0855
462.00,0.0858
461.00,0.0860
460.00,0.0857
459.00,0.0855
458.00,0.0860
457.00,0.0866
456.00,0.0866
455.00,0.0865
454.00,0.0865
453.00,0.0865
452.00,0.0864
451.00,0.0864
450.00,0.0864
449.00,0.0861
448.00,0.0855
447.00,0.0851
446.00,0.0853
445.00,0.0855
444.00,0.0854
443.00,0.0856
442.00,0.0863
441.00,0.0866
440.00,0.0863
439.00,0.0858
438.00,0.0858
437.00,0.0859
436.00,0.0856
435.00,0.0853
434.00,0.0853
433.00,0.0853
432.00,0.0849
431.00,0.0847
430.00,0.0851
429.00,0.0857
428.00,0.0860
427.00,0.0862
426.00,0.0868
425.00,0.0869
424.00,0.0863
423.00,0.0858
422.00,0.0859
421.00,0.0860
420.00,0.0854
419.00,0.0848
418.00,0.0850
417.00,0.0852
416.00,0.0849
415.00,0.0848
414.00,0.0854
413.00,0.0860
412.00,0.0859
411.00,0.0858
410.00,0.0862
409.00,0.0862
408.00,0.0851
407.00,0.0842
406.00,0.0843
405.00,0.0844
404.00,0.0834
403.00,0.0827
402.00,0.0832
401.00,0.0835
400.00,0.0822
